word,color,congruent,corrAns,practice.thisRepN,practice.thisTrialN,practice.thisN,practice.thisIndex,trials.thisRepN,trials.thisTrialN,trials.thisN,trials.thisIndex,resp_time.keys,resp_time.corr,resp_time.rt,key_resp_5.keys,key_resp_5.rt,date,frameRate,expName,Session,Participant,
blue,red,0,left,0,0,0,11,,,,,left,1,9.25608111537,,,2018_Sep_03_1632,60.0009237496,Stroop,pre,1002,
green,blue,0,right,0,1,1,9,,,,,right,1,4.21624075053,,,2018_Sep_03_1632,60.0009237496,Stroop,pre,1002,
green,green,1,down,0,2,2,2,,,,,down,1,2.51837720221,,,2018_Sep_03_1632,60.0009237496,Stroop,pre,1002,
blue,blue,1,right,0,3,3,4,,,,,right,1,4.25758646192,,,2018_Sep_03_1632,60.0009237496,Stroop,pre,1002,
blue,green,0,down,0,4,4,10,,,,,down,1,4.4530930595,,,2018_Sep_03_1632,60.0009237496,Stroop,pre,1002,
red,red,1,left,0,5,5,0,,,,,left,1,2.88518140281,,,2018_Sep_03_1632,60.0009237496,Stroop,pre,1002,
green,green,1,down,0,6,6,3,,,,,down,1,6.40139980123,,,2018_Sep_03_1632,60.0009237496,Stroop,pre,1002,
green,red,0,left,0,7,7,8,,,,,left,1,5.06966789432,,,2018_Sep_03_1632,60.0009237496,Stroop,pre,1002,
red,green,0,down,0,8,8,6,,,,,down,1,1.99922993541,,,2018_Sep_03_1632,60.0009237496,Stroop,pre,1002,
blue,blue,1,right,0,9,9,5,,,,,right,1,4.8689550215,,,2018_Sep_03_1632,60.0009237496,Stroop,pre,1002,
red,green,0,down,0,10,10,7,,,,,down,1,2.046525472,,,2018_Sep_03_1632,60.0009237496,Stroop,pre,1002,
red,red,1,left,0,11,11,1,,,,,left,1,1.33429897893,,,2018_Sep_03_1632,60.0009237496,Stroop,pre,1002,
red,green,0,down,1,0,12,6,,,,,down,1,1.91500408553,,,2018_Sep_03_1632,60.0009237496,Stroop,pre,1002,
blue,red,0,left,1,1,13,11,,,,,left,1,2.4348954725,,,2018_Sep_03_1632,60.0009237496,Stroop,pre,1002,
green,red,0,left,1,2,14,8,,,,,left,1,1.94720937831,,,2018_Sep_03_1632,60.0009237496,Stroop,pre,1002,
red,red,1,left,1,3,15,0,,,,,left,1,1.6273112629,,,2018_Sep_03_1632,60.0009237496,Stroop,pre,1002,
red,red,1,left,1,4,16,1,,,,,left,1,2.08452207243,,,2018_Sep_03_1632,60.0009237496,Stroop,pre,1002,
red,green,0,down,1,5,17,7,,,,,down,1,2.59590425996,,,2018_Sep_03_1632,60.0009237496,Stroop,pre,1002,
blue,blue,1,right,1,6,18,5,,,,,right,1,1.82753774913,,,2018_Sep_03_1632,60.0009237496,Stroop,pre,1002,
green,green,1,down,1,7,19,3,,,,,down,1,1.35074403464,,,2018_Sep_03_1632,60.0009237496,Stroop,pre,1002,
green,blue,0,right,1,8,20,9,,,,,right,1,1.61859963997,,,2018_Sep_03_1632,60.0009237496,Stroop,pre,1002,
green,green,1,down,1,9,21,2,,,,,down,1,1.39588048233,,,2018_Sep_03_1632,60.0009237496,Stroop,pre,1002,
blue,green,0,down,1,10,22,10,,,,,down,1,1.38452709025,,,2018_Sep_03_1632,60.0009237496,Stroop,pre,1002,
blue,blue,1,right,1,11,23,4,,,,,right,1,1.41789817129,,,2018_Sep_03_1632,60.0009237496,Stroop,pre,1002,
green,green,1,down,,,,,0,0,0,19,down,1,1.71681580431,,,2018_Sep_03_1632,60.0009237496,Stroop,pre,1002,
blue,green,0,down,,,,,0,1,1,42,down,1,1.40096587368,,,2018_Sep_03_1632,60.0009237496,Stroop,pre,1002,
green,green,1,down,,,,,0,2,2,22,down,1,0.999856878037,,,2018_Sep_03_1632,60.0009237496,Stroop,pre,1002,
red,red,1,left,,,,,0,3,3,9,left,1,1.23426898604,,,2018_Sep_03_1632,60.0009237496,Stroop,pre,1002,
blue,red,0,left,,,,,0,4,4,43,left,1,0.929492760936,,,2018_Sep_03_1632,60.0009237496,Stroop,pre,1002,
green,green,1,down,,,,,0,5,5,12,down,1,1.10724168624,,,2018_Sep_03_1632,60.0009237496,Stroop,pre,1002,
green,green,1,down,,,,,0,6,6,15,down,1,0.768636218752,,,2018_Sep_03_1632,60.0009237496,Stroop,pre,1002,
blue,blue,1,right,,,,,0,7,7,28,right,1,1.33363212181,,,2018_Sep_03_1632,60.0009237496,Stroop,pre,1002,
blue,blue,1,right,,,,,0,8,8,31,right,1,0.794501379615,,,2018_Sep_03_1632,60.0009237496,Stroop,pre,1002,
red,red,1,left,,,,,0,9,9,8,left,1,1.18346981238,,,2018_Sep_03_1632,60.0009237496,Stroop,pre,1002,
red,red,1,left,,,,,0,10,10,2,left,1,1.00075894555,,,2018_Sep_03_1632,60.0009237496,Stroop,pre,1002,
blue,blue,1,right,,,,,0,11,11,26,right,1,1.15145325814,,,2018_Sep_03_1632,60.0009237496,Stroop,pre,1002,
blue,blue,1,right,,,,,0,12,12,33,right,1,0.979123295295,,,2018_Sep_03_1632,60.0009237496,Stroop,pre,1002,
blue,blue,1,right,,,,,0,13,13,29,right,1,1.10125308696,,,2018_Sep_03_1632,60.0009237496,Stroop,pre,1002,
blue,blue,1,right,,,,,0,14,14,30,right,1,0.81131307844,,,2018_Sep_03_1632,60.0009237496,Stroop,pre,1002,
green,green,1,down,,,,,0,15,15,23,down,1,1.25034910925,,,2018_Sep_03_1632,60.0009237496,Stroop,pre,1002,
green,green,1,down,,,,,0,16,16,21,down,1,0.828505105349,,,2018_Sep_03_1632,60.0009237496,Stroop,pre,1002,
blue,blue,1,right,,,,,0,17,17,34,right,1,1.28132132933,,,2018_Sep_03_1632,60.0009237496,Stroop,pre,1002,
blue,blue,1,right,,,,,0,18,18,35,right,1,0.768484543683,,,2018_Sep_03_1632,60.0009237496,Stroop,pre,1002,
red,red,1,left,,,,,0,19,19,1,left,1,1.05160031453,,,2018_Sep_03_1632,60.0009237496,Stroop,pre,1002,
red,red,1,left,,,,,0,20,20,3,left,1,0.883480475257,,,2018_Sep_03_1632,60.0009237496,Stroop,pre,1002,
blue,blue,1,right,,,,,0,21,21,25,right,1,1.62801005161,,,2018_Sep_03_1632,60.0009237496,Stroop,pre,1002,
blue,blue,1,right,,,,,0,22,22,24,right,1,0.651990963359,,,2018_Sep_03_1632,60.0009237496,Stroop,pre,1002,
red,red,1,left,,,,,0,23,23,10,left,1,1.25105245962,,,2018_Sep_03_1632,60.0009237496,Stroop,pre,1002,
red,red,1,left,,,,,0,24,24,6,left,1,0.884760590027,,,2018_Sep_03_1632,60.0009237496,Stroop,pre,1002,
blue,red,0,left,,,,,0,25,25,44,left,1,0.849368410189,,,2018_Sep_03_1632,60.0009237496,Stroop,pre,1002,
green,green,1,down,,,,,0,26,26,14,down,1,1.04256281828,,,2018_Sep_03_1632,60.0009237496,Stroop,pre,1002,
red,red,1,left,,,,,0,27,27,4,left,1,1.39968347808,,,2018_Sep_03_1632,60.0009237496,Stroop,pre,1002,
green,green,1,down,,,,,0,28,28,17,down,1,1.27293700524,,,2018_Sep_03_1632,60.0009237496,Stroop,pre,1002,
green,green,1,down,,,,,0,29,29,18,down,1,0.963376172987,,,2018_Sep_03_1632,60.0009237496,Stroop,pre,1002,
green,red,0,left,,,,,0,30,30,39,left,1,2.07986604697,,,2018_Sep_03_1632,60.0009237496,Stroop,pre,1002,
green,green,1,down,,,,,0,31,31,13,down,1,1.63560749001,,,2018_Sep_03_1632,60.0009237496,Stroop,pre,1002,
red,red,1,left,,,,,0,32,32,0,left,1,0.984112891868,,,2018_Sep_03_1632,60.0009237496,Stroop,pre,1002,
red,blue,0,right,,,,,0,33,33,37,right,1,0.996010546549,,,2018_Sep_03_1632,60.0009237496,Stroop,pre,1002,
blue,blue,1,right,,,,,0,34,34,27,right,1,1.38397997661,,,2018_Sep_03_1632,60.0009237496,Stroop,pre,1002,
blue,blue,1,right,,,,,0,35,35,32,right,1,0.651617192654,,,2018_Sep_03_1632,60.0009237496,Stroop,pre,1002,
red,green,0,down,,,,,0,36,36,38,down,1,1.44897730519,,,2018_Sep_03_1632,60.0009237496,Stroop,pre,1002,
green,blue,0,right,,,,,0,37,37,41,right,1,1.18416460965,,,2018_Sep_03_1632,60.0009237496,Stroop,pre,1002,
red,red,1,left,,,,,0,38,38,5,left,1,0.932244865143,,,2018_Sep_03_1632,60.0009237496,Stroop,pre,1002,
red,green,0,down,,,,,0,39,39,36,down,1,1.11872251958,,,2018_Sep_03_1632,60.0009237496,Stroop,pre,1002,
green,blue,0,right,,,,,0,40,40,40,right,1,0.900640000365,,,2018_Sep_03_1632,60.0009237496,Stroop,pre,1002,
green,green,1,down,,,,,0,41,41,20,down,1,1.01259159663,,,2018_Sep_03_1632,60.0009237496,Stroop,pre,1002,
green,green,1,down,,,,,0,42,42,16,down,1,0.60070625842,,,2018_Sep_03_1632,60.0009237496,Stroop,pre,1002,
red,red,1,left,,,,,0,43,43,11,left,1,1.06816568392,,,2018_Sep_03_1632,60.0009237496,Stroop,pre,1002,
red,red,1,left,,,,,0,44,44,7,left,1,0.834884581545,,,2018_Sep_03_1632,60.0009237496,Stroop,pre,1002,
blue,blue,1,right,,,,,1,0,45,27,right,1,0.933098179957,,,2018_Sep_03_1632,60.0009237496,Stroop,pre,1002,
red,green,0,down,,,,,1,1,46,36,down,1,1.03626203066,,,2018_Sep_03_1632,60.0009237496,Stroop,pre,1002,
red,red,1,left,,,,,1,2,47,2,left,1,0.961857996783,,,2018_Sep_03_1632,60.0009237496,Stroop,pre,1002,
blue,blue,1,right,,,,,1,3,48,32,right,1,1.21912257683,,,2018_Sep_03_1632,60.0009237496,Stroop,pre,1002,
green,red,0,left,,,,,1,4,49,39,left,1,1.1770997446,,,2018_Sep_03_1632,60.0009237496,Stroop,pre,1002,
red,blue,0,right,,,,,1,5,50,37,right,1,1.07881315969,,,2018_Sep_03_1632,60.0009237496,Stroop,pre,1002,
green,green,1,down,,,,,1,6,51,12,down,1,0.854712960634,,,2018_Sep_03_1632,60.0009237496,Stroop,pre,1002,
blue,blue,1,right,,,,,1,7,52,34,right,1,1.06668114992,,,2018_Sep_03_1632,60.0009237496,Stroop,pre,1002,
green,green,1,down,,,,,1,8,53,23,down,1,1.13528674856,,,2018_Sep_03_1632,60.0009237496,Stroop,pre,1002,
red,red,1,left,,,,,1,9,54,5,left,1,1.11219051301,,,2018_Sep_03_1632,60.0009237496,Stroop,pre,1002,
red,red,1,left,,,,,1,10,55,6,left,1,0.778757108343,,,2018_Sep_03_1632,60.0009237496,Stroop,pre,1002,
red,red,1,left,,,,,1,11,56,11,left,1,0.851113243685,,,2018_Sep_03_1632,60.0009237496,Stroop,pre,1002,
green,green,1,down,,,,,1,12,57,19,down,1,0.949711161632,,,2018_Sep_03_1632,60.0009237496,Stroop,pre,1002,
green,green,1,down,,,,,1,13,58,21,down,1,0.595888294163,,,2018_Sep_03_1632,60.0009237496,Stroop,pre,1002,
green,green,1,down,,,,,1,14,59,14,down,1,0.579537037512,,,2018_Sep_03_1632,60.0009237496,Stroop,pre,1002,
green,green,1,down,,,,,1,15,60,20,down,1,0.547069164402,,,2018_Sep_03_1632,60.0009237496,Stroop,pre,1002,
blue,blue,1,right,,,,,1,16,61,29,right,1,0.937869672342,,,2018_Sep_03_1632,60.0009237496,Stroop,pre,1002,
green,green,1,down,,,,,1,17,62,16,down,1,1.17889390101,,,2018_Sep_03_1632,60.0009237496,Stroop,pre,1002,
red,red,1,left,,,,,1,18,63,7,left,1,0.901750478546,,,2018_Sep_03_1632,60.0009237496,Stroop,pre,1002,
red,red,1,left,,,,,1,19,64,3,left,1,1.36817412298,,,2018_Sep_03_1632,60.0009237496,Stroop,pre,1002,
green,green,1,down,,,,,1,20,65,13,down,1,3.01895995379,,,2018_Sep_03_1632,60.0009237496,Stroop,pre,1002,
red,red,1,left,,,,,1,21,66,10,left,1,0.993874551034,,,2018_Sep_03_1632,60.0009237496,Stroop,pre,1002,
red,green,0,down,,,,,1,22,67,38,down,1,1.04888384826,,,2018_Sep_03_1632,60.0009237496,Stroop,pre,1002,
blue,blue,1,right,,,,,1,23,68,30,right,1,1.14735346962,,,2018_Sep_03_1632,60.0009237496,Stroop,pre,1002,
blue,blue,1,right,,,,,1,24,69,25,right,1,2.32934074374,,,2018_Sep_03_1632,60.0009237496,Stroop,pre,1002,
red,red,1,left,,,,,1,25,70,0,left,1,0.926612645253,,,2018_Sep_03_1632,60.0009237496,Stroop,pre,1002,
green,green,1,down,,,,,1,26,71,22,down,1,0.886266221677,,,2018_Sep_03_1632,60.0009237496,Stroop,pre,1002,
red,red,1,left,,,,,1,27,72,4,left,1,1.88008147118,,,2018_Sep_03_1632,60.0009237496,Stroop,pre,1002,
green,blue,0,right,,,,,1,28,73,41,right,1,2.45169063532,,,2018_Sep_03_1632,60.0009237496,Stroop,pre,1002,
blue,blue,1,right,,,,,1,29,74,35,right,1,0.634717111741,,,2018_Sep_03_1632,60.0009237496,Stroop,pre,1002,
red,red,1,left,,,,,1,30,75,1,left,1,1.13319808023,,,2018_Sep_03_1632,60.0009237496,Stroop,pre,1002,
blue,blue,1,right,,,,,1,31,76,31,right,1,1.17362034134,,,2018_Sep_03_1632,60.0009237496,Stroop,pre,1002,
blue,red,0,left,,,,,1,32,77,43,left,1,1.14814463187,,,2018_Sep_03_1632,60.0009237496,Stroop,pre,1002,
green,blue,0,right,,,,,1,33,78,40,right,1,1.40158141216,,,2018_Sep_03_1632,60.0009237496,Stroop,pre,1002,
green,green,1,down,,,,,1,34,79,15,down,1,1.54617222875,,,2018_Sep_03_1632,60.0009237496,Stroop,pre,1002,
blue,blue,1,right,,,,,1,35,80,33,right,1,0.749494368921,,,2018_Sep_03_1632,60.0009237496,Stroop,pre,1002,
blue,red,0,left,,,,,1,36,81,44,left,1,1.01833500689,,,2018_Sep_03_1632,60.0009237496,Stroop,pre,1002,
blue,blue,1,right,,,,,1,37,82,26,right,1,1.31435598823,,,2018_Sep_03_1632,60.0009237496,Stroop,pre,1002,
blue,blue,1,right,,,,,1,38,83,28,right,1,0.850849808039,,,2018_Sep_03_1632,60.0009237496,Stroop,pre,1002,
blue,green,0,down,,,,,1,39,84,42,down,1,1.25175837591,,,2018_Sep_03_1632,60.0009237496,Stroop,pre,1002,
blue,blue,1,right,,,,,1,40,85,24,right,1,1.4341328206,,,2018_Sep_03_1632,60.0009237496,Stroop,pre,1002,
red,red,1,left,,,,,1,41,86,9,left,1,0.801266600865,,,2018_Sep_03_1632,60.0009237496,Stroop,pre,1002,
green,green,1,down,,,,,1,42,87,17,down,1,1.19984957939,,,2018_Sep_03_1632,60.0009237496,Stroop,pre,1002,
green,green,1,down,,,,,1,43,88,18,down,1,0.701098617876,,,2018_Sep_03_1632,60.0009237496,Stroop,pre,1002,
red,red,1,left,,,,,1,44,89,8,left,1,0.934856413318,,,2018_Sep_03_1632,60.0009237496,Stroop,pre,1002,
blue,blue,1,right,,,,,2,0,90,32,right,1,0.876033286406,,,2018_Sep_03_1632,60.0009237496,Stroop,pre,1002,
green,blue,0,right,,,,,2,1,91,40,down,0,1.2078946303,,,2018_Sep_03_1632,60.0009237496,Stroop,pre,1002,
red,red,1,left,,,,,2,2,92,4,left,1,3.46659356613,,,2018_Sep_03_1632,60.0009237496,Stroop,pre,1002,
green,green,1,down,,,,,2,3,93,22,down,1,1.19906982128,,,2018_Sep_03_1632,60.0009237496,Stroop,pre,1002,
green,green,1,down,,,,,2,4,94,18,down,1,0.946361480463,,,2018_Sep_03_1632,60.0009237496,Stroop,pre,1002,
green,green,1,down,,,,,2,5,95,15,down,1,0.728736267276,,,2018_Sep_03_1632,60.0009237496,Stroop,pre,1002,
green,green,1,down,,,,,2,6,96,23,down,1,1.3300187199,,,2018_Sep_03_1632,60.0009237496,Stroop,pre,1002,
red,red,1,left,,,,,2,7,97,10,left,1,0.934326120784,,,2018_Sep_03_1632,60.0009237496,Stroop,pre,1002,
blue,blue,1,right,,,,,2,8,98,27,right,1,1.0292442077,,,2018_Sep_03_1632,60.0009237496,Stroop,pre,1002,
green,green,1,down,,,,,2,9,99,12,down,1,2.71260368502,,,2018_Sep_03_1632,60.0009237496,Stroop,pre,1002,
blue,blue,1,right,,,,,2,10,100,31,right,1,0.801366101991,,,2018_Sep_03_1632,60.0009237496,Stroop,pre,1002,
red,red,1,left,,,,,2,11,101,1,left,1,1.0170209648,,,2018_Sep_03_1632,60.0009237496,Stroop,pre,1002,
green,green,1,down,,,,,2,12,102,13,down,1,1.99975709181,,,2018_Sep_03_1632,60.0009237496,Stroop,pre,1002,
blue,green,0,down,,,,,2,13,103,42,down,1,0.643027879131,,,2018_Sep_03_1632,60.0009237496,Stroop,pre,1002,
green,green,1,down,,,,,2,14,104,14,down,1,0.559122770705,,,2018_Sep_03_1632,60.0009237496,Stroop,pre,1002,
green,green,1,down,,,,,2,15,105,16,down,1,0.561089984941,,,2018_Sep_03_1632,60.0009237496,Stroop,pre,1002,
green,blue,0,right,,,,,2,16,106,41,right,1,0.97912044426,,,2018_Sep_03_1632,60.0009237496,Stroop,pre,1002,
blue,blue,1,right,,,,,2,17,107,33,right,1,0.484509470853,,,2018_Sep_03_1632,60.0009237496,Stroop,pre,1002,
green,green,1,down,,,,,2,18,108,21,down,1,0.917364457514,,,2018_Sep_03_1632,60.0009237496,Stroop,pre,1002,
blue,blue,1,right,,,,,2,19,109,34,right,1,0.866684742229,,,2018_Sep_03_1632,60.0009237496,Stroop,pre,1002,
red,green,0,down,,,,,2,20,110,38,down,1,1.13443514437,,,2018_Sep_03_1632,60.0009237496,Stroop,pre,1002,
red,red,1,left,,,,,2,21,111,9,left,1,0.750841197913,,,2018_Sep_03_1632,60.0009237496,Stroop,pre,1002,
blue,blue,1,right,,,,,2,22,112,24,right,1,1.10035301517,,,2018_Sep_03_1632,60.0009237496,Stroop,pre,1002,
red,red,1,left,,,,,2,23,113,11,left,1,1.15291783488,,,2018_Sep_03_1632,60.0009237496,Stroop,pre,1002,
blue,blue,1,right,,,,,2,24,114,25,right,1,1.11084482443,,,2018_Sep_03_1632,60.0009237496,Stroop,pre,1002,
blue,red,0,left,,,,,2,25,115,43,left,1,1.01745603276,,,2018_Sep_03_1632,60.0009237496,Stroop,pre,1002,
blue,blue,1,right,,,,,2,26,116,29,right,1,1.76391775562,,,2018_Sep_03_1632,60.0009237496,Stroop,pre,1002,
red,red,1,left,,,,,2,27,117,0,left,1,0.800522480697,,,2018_Sep_03_1632,60.0009237496,Stroop,pre,1002,
green,green,1,down,,,,,2,28,118,19,down,1,0.833283725323,,,2018_Sep_03_1632,60.0009237496,Stroop,pre,1002,
red,green,0,down,,,,,2,29,119,36,down,1,1.23445173739,,,2018_Sep_03_1632,60.0009237496,Stroop,pre,1002,
green,green,1,down,,,,,2,30,120,20,down,1,0.694529547843,,,2018_Sep_03_1632,60.0009237496,Stroop,pre,1002,
red,red,1,left,,,,,2,31,121,8,left,1,1.06812462901,,,2018_Sep_03_1632,60.0009237496,Stroop,pre,1002,
green,red,0,left,,,,,2,32,122,39,left,1,0.834801046216,,,2018_Sep_03_1632,60.0009237496,Stroop,pre,1002,
blue,blue,1,right,,,,,2,33,123,30,right,1,0.871184530967,,,2018_Sep_03_1632,60.0009237496,Stroop,pre,1002,
red,red,1,left,,,,,2,34,124,2,left,1,0.883028871292,,,2018_Sep_03_1632,60.0009237496,Stroop,pre,1002,
blue,blue,1,right,,,,,2,35,125,26,right,1,1.02621669349,,,2018_Sep_03_1632,60.0009237496,Stroop,pre,1002,
blue,red,0,left,,,,,2,36,126,44,left,1,0.795407723683,,,2018_Sep_03_1632,60.0009237496,Stroop,pre,1002,
red,red,1,left,,,,,2,37,127,7,left,1,0.850207184722,,,2018_Sep_03_1632,60.0009237496,Stroop,pre,1002,
red,red,1,left,,,,,2,38,128,3,left,1,0.761234646463,,,2018_Sep_03_1632,60.0009237496,Stroop,pre,1002,
green,green,1,down,,,,,2,39,129,17,down,1,0.967926425047,,,2018_Sep_03_1632,60.0009237496,Stroop,pre,1002,
blue,blue,1,right,,,,,2,40,130,28,right,1,0.948477803837,,,2018_Sep_03_1632,60.0009237496,Stroop,pre,1002,
red,red,1,left,,,,,2,41,131,5,left,1,0.885155743495,,,2018_Sep_03_1632,60.0009237496,Stroop,pre,1002,
red,blue,0,right,,,,,2,42,132,37,right,1,1.07934288202,,,2018_Sep_03_1632,60.0009237496,Stroop,pre,1002,
blue,blue,1,right,,,,,2,43,133,35,right,1,0.880830723211,,,2018_Sep_03_1632,60.0009237496,Stroop,pre,1002,
red,red,1,left,,,,,2,44,134,6,left,1,1.00686016072,,,2018_Sep_03_1632,60.0009237496,Stroop,pre,1002,
blue,blue,1,right,,,,,3,0,135,35,right,1,1.07700674384,,,2018_Sep_03_1632,60.0009237496,Stroop,pre,1002,
green,green,1,down,,,,,3,1,136,18,down,1,0.883730511036,,,2018_Sep_03_1632,60.0009237496,Stroop,pre,1002,
blue,blue,1,right,,,,,3,2,137,30,right,1,2.06990224941,,,2018_Sep_03_1632,60.0009237496,Stroop,pre,1002,
red,red,1,left,,,,,3,3,138,1,left,1,1.01703892632,,,2018_Sep_03_1632,60.0009237496,Stroop,pre,1002,
blue,green,0,down,,,,,3,4,139,42,down,1,2.31830068043,,,2018_Sep_03_1632,60.0009237496,Stroop,pre,1002,
green,green,1,down,,,,,3,5,140,13,down,1,1.2512865296,,,2018_Sep_03_1632,60.0009237496,Stroop,pre,1002,
blue,red,0,left,,,,,3,6,141,43,left,1,1.56950595553,,,2018_Sep_03_1632,60.0009237496,Stroop,pre,1002,
green,green,1,down,,,,,3,7,142,17,down,1,0.893296304089,,,2018_Sep_03_1632,60.0009237496,Stroop,pre,1002,
red,green,0,down,,,,,3,8,143,36,down,1,1.80944051857,,,2018_Sep_03_1632,60.0009237496,Stroop,pre,1002,
red,red,1,left,,,,,3,9,144,0,left,1,0.923752771919,,,2018_Sep_03_1632,60.0009237496,Stroop,pre,1002,
green,green,1,down,,,,,3,10,145,20,down,1,0.884304424408,,,2018_Sep_03_1632,60.0009237496,Stroop,pre,1002,
blue,blue,1,right,,,,,3,11,146,29,right,1,0.918108577682,,,2018_Sep_03_1632,60.0009237496,Stroop,pre,1002,
blue,blue,1,right,,,,,3,12,147,28,right,1,0.784608857938,,,2018_Sep_03_1632,60.0009237496,Stroop,pre,1002,
blue,blue,1,right,,,,,3,13,148,33,right,1,0.750032074145,,,2018_Sep_03_1632,60.0009237496,Stroop,pre,1002,
red,red,1,left,,,,,3,14,149,5,left,1,0.965429488485,,,2018_Sep_03_1632,60.0009237496,Stroop,pre,1002,
red,blue,0,right,,,,,3,15,150,37,right,1,1.17755648043,,,2018_Sep_03_1632,60.0009237496,Stroop,pre,1002,
green,green,1,down,,,,,3,16,151,14,down,1,0.900475495638,,,2018_Sep_03_1632,60.0009237496,Stroop,pre,1002,
green,green,1,down,,,,,3,17,152,21,down,1,0.878822454068,,,2018_Sep_03_1632,60.0009237496,Stroop,pre,1002,
green,green,1,down,,,,,3,18,153,12,down,1,0.750003563794,,,2018_Sep_03_1632,60.0009237496,Stroop,pre,1002,
red,red,1,left,,,,,3,19,154,2,left,1,0.765878982682,,,2018_Sep_03_1632,60.0009237496,Stroop,pre,1002,
red,red,1,left,,,,,3,20,155,9,left,1,0.7839970258,,,2018_Sep_03_1632,60.0009237496,Stroop,pre,1002,
green,green,1,down,,,,,3,21,156,16,down,1,0.901847128637,,,2018_Sep_03_1632,60.0009237496,Stroop,pre,1002,
green,blue,0,right,,,,,3,22,157,41,right,1,1.06885763014,,,2018_Sep_03_1632,60.0009237496,Stroop,pre,1002,
red,red,1,left,,,,,3,23,158,10,left,1,1.08156583411,,,2018_Sep_03_1632,60.0009237496,Stroop,pre,1002,
blue,blue,1,right,,,,,3,24,159,34,right,1,0.876507413546,,,2018_Sep_03_1632,60.0009237496,Stroop,pre,1002,
green,green,1,down,,,,,3,25,160,19,down,1,0.999968923717,,,2018_Sep_03_1632,60.0009237496,Stroop,pre,1002,
red,red,1,left,,,,,3,26,161,11,left,1,1.10082771252,,,2018_Sep_03_1632,60.0009237496,Stroop,pre,1002,
red,red,1,left,,,,,3,27,162,7,left,1,0.762686963756,,,2018_Sep_03_1632,60.0009237496,Stroop,pre,1002,
red,red,1,left,,,,,3,28,163,8,left,1,0.715012239493,,,2018_Sep_03_1632,60.0009237496,Stroop,pre,1002,
blue,blue,1,right,,,,,3,29,164,32,right,1,2.85017867437,,,2018_Sep_03_1632,60.0009237496,Stroop,pre,1002,
red,green,0,down,,,,,3,30,165,38,down,1,1.35053448355,,,2018_Sep_03_1632,60.0009237496,Stroop,pre,1002,
blue,blue,1,right,,,,,3,31,166,27,right,1,1.15034477568,,,2018_Sep_03_1632,60.0009237496,Stroop,pre,1002,
red,red,1,left,,,,,3,32,167,4,left,1,0.97920084345,,,2018_Sep_03_1632,60.0009237496,Stroop,pre,1002,
green,green,1,down,,,,,3,33,168,15,down,1,0.89833522357,,,2018_Sep_03_1632,60.0009237496,Stroop,pre,1002,
blue,blue,1,right,,,,,3,34,169,31,right,1,1.1923830035,,,2018_Sep_03_1632,60.0009237496,Stroop,pre,1002,
green,blue,0,right,,,,,3,35,170,40,right,1,0.834164410072,,,2018_Sep_03_1632,60.0009237496,Stroop,pre,1002,
green,green,1,down,,,,,3,36,171,23,down,1,3.56335741318,,,2018_Sep_03_1632,60.0009237496,Stroop,pre,1002,
blue,red,0,left,,,,,3,37,172,44,left,1,1.3922821909,,,2018_Sep_03_1632,60.0009237496,Stroop,pre,1002,
blue,blue,1,right,,,,,3,38,173,25,right,1,1.01758632507,,,2018_Sep_03_1632,60.0009237496,Stroop,pre,1002,
green,green,1,down,,,,,3,39,174,22,down,1,0.884532507217,,,2018_Sep_03_1632,60.0009237496,Stroop,pre,1002,
green,red,0,left,,,,,3,40,175,39,left,1,0.862793934593,,,2018_Sep_03_1632,60.0009237496,Stroop,pre,1002,
blue,blue,1,right,,,,,3,41,176,24,right,1,0.850217163345,,,2018_Sep_03_1632,60.0009237496,Stroop,pre,1002,
red,red,1,left,,,,,3,42,177,3,left,1,0.832062912082,,,2018_Sep_03_1632,60.0009237496,Stroop,pre,1002,
red,red,1,left,,,,,3,43,178,6,left,1,0.780213417085,,,2018_Sep_03_1632,60.0009237496,Stroop,pre,1002,
blue,blue,1,right,,,,,3,44,179,26,right,1,0.820581793631,,,2018_Sep_03_1632,60.0009237496,Stroop,pre,1002,
,,,,,,,,,,,,,,,space,3.33175842153,2018_Sep_03_1632,60.0009237496,Stroop,pre,1002,
