word,color,congruent,corrAns,practice.thisRepN,practice.thisTrialN,practice.thisN,practice.thisIndex,trials.thisRepN,trials.thisTrialN,trials.thisN,trials.thisIndex,resp_time.keys,resp_time.corr,resp_time.rt,key_resp_5.keys,key_resp_5.rt,date,frameRate,expName,Session,Participant,
blue,green,0,down,0,0,0,10,,,,,right,0,2.58158808412,,,2019_Jan_04_1408,59.9652263706,Stroop,pre,1002,
blue,red,0,left,0,1,1,11,,,,,right,0,1.75141738241,,,2019_Jan_04_1408,59.9652263706,Stroop,pre,1002,
blue,blue,1,right,0,2,2,5,,,,,right,1,7.41958140248,,,2019_Jan_04_1408,59.9652263706,Stroop,pre,1002,
red,green,0,down,0,3,3,6,,,,,down,1,4.66914648005,,,2019_Jan_04_1408,59.9652263706,Stroop,pre,1002,
red,red,1,left,0,4,4,1,,,,,left,1,1.28436058277,,,2019_Jan_04_1408,59.9652263706,Stroop,pre,1002,
red,red,1,left,0,5,5,0,,,,,left,1,1.2005541234,,,2019_Jan_04_1408,59.9652263706,Stroop,pre,1002,
green,red,0,left,0,6,6,8,,,,,left,1,2.38502139117,,,2019_Jan_04_1408,59.9652263706,Stroop,pre,1002,
blue,blue,1,right,0,7,7,4,,,,,right,1,6.48639238756,,,2019_Jan_04_1408,59.9652263706,Stroop,pre,1002,
green,green,1,down,0,8,8,3,,,,,down,1,1.83441415335,,,2019_Jan_04_1408,59.9652263706,Stroop,pre,1002,
green,blue,0,right,0,9,9,9,,,,,right,1,2.58493403605,,,2019_Jan_04_1408,59.9652263706,Stroop,pre,1002,
red,green,0,down,0,10,10,7,,,,,right,0,3.66878639678,,,2019_Jan_04_1408,59.9652263706,Stroop,pre,1002,
green,green,1,down,0,11,11,2,,,,,down,1,1.50110533875,,,2019_Jan_04_1408,59.9652263706,Stroop,pre,1002,
red,green,0,down,1,0,12,6,,,,,down,1,1.85142616354,,,2019_Jan_04_1408,59.9652263706,Stroop,pre,1002,
red,green,0,down,1,1,13,7,,,,,down,1,1.21783127804,,,2019_Jan_04_1408,59.9652263706,Stroop,pre,1002,
green,red,0,left,1,2,14,8,,,,,left,1,1.51775897628,,,2019_Jan_04_1408,59.9652263706,Stroop,pre,1002,
green,green,1,down,1,3,15,3,,,,,down,1,0.900671186097,,,2019_Jan_04_1408,59.9652263706,Stroop,pre,1002,
blue,red,0,left,1,4,16,11,,,,,left,1,1.751360077,,,2019_Jan_04_1408,59.9652263706,Stroop,pre,1002,
green,green,1,down,1,5,17,2,,,,,down,1,1.13403451211,,,2019_Jan_04_1408,59.9652263706,Stroop,pre,1002,
green,blue,0,right,1,6,18,9,,,,,right,1,0.984147782965,,,2019_Jan_04_1408,59.9652263706,Stroop,pre,1002,
red,red,1,left,1,7,19,1,,,,,left,1,0.918113984745,,,2019_Jan_04_1408,59.9652263706,Stroop,pre,1002,
red,red,1,left,1,8,20,0,,,,,left,1,0.867969466763,,,2019_Jan_04_1408,59.9652263706,Stroop,pre,1002,
blue,blue,1,right,1,9,21,5,,,,,right,1,1.23139726565,,,2019_Jan_04_1408,59.9652263706,Stroop,pre,1002,
blue,green,0,down,1,10,22,10,,,,,down,1,0.767718634409,,,2019_Jan_04_1408,59.9652263706,Stroop,pre,1002,
blue,blue,1,right,1,11,23,4,,,,,right,1,1.0345391989,,,2019_Jan_04_1408,59.9652263706,Stroop,pre,1002,
blue,blue,1,right,,,,,0,0,0,27,right,1,1.20094186152,,,2019_Jan_04_1408,59.9652263706,Stroop,pre,1002,
red,red,1,left,,,,,0,1,1,1,left,1,1.33400047099,,,2019_Jan_04_1408,59.9652263706,Stroop,pre,1002,
green,red,0,left,,,,,0,2,2,39,left,1,0.867840030654,,,2019_Jan_04_1408,59.9652263706,Stroop,pre,1002,
red,blue,0,right,,,,,0,3,3,37,right,1,1.06744020422,,,2019_Jan_04_1408,59.9652263706,Stroop,pre,1002,
red,red,1,left,,,,,0,4,4,7,left,1,1.35114990013,,,2019_Jan_04_1408,59.9652263706,Stroop,pre,1002,
green,green,1,down,,,,,0,5,5,21,down,1,0.852164576587,,,2019_Jan_04_1408,59.9652263706,Stroop,pre,1002,
green,green,1,down,,,,,0,6,6,18,down,1,0.734310718507,,,2019_Jan_04_1408,59.9652263706,Stroop,pre,1002,
green,green,1,down,,,,,0,7,7,23,down,1,0.900390075957,,,2019_Jan_04_1408,59.9652263706,Stroop,pre,1002,
blue,red,0,left,,,,,0,8,8,43,left,1,0.967951163243,,,2019_Jan_04_1408,59.9652263706,Stroop,pre,1002,
red,red,1,left,,,,,0,9,9,9,left,1,0.634212130387,,,2019_Jan_04_1408,59.9652263706,Stroop,pre,1002,
green,green,1,down,,,,,0,10,10,22,down,1,0.901180662587,,,2019_Jan_04_1408,59.9652263706,Stroop,pre,1002,
red,red,1,left,,,,,0,11,11,5,left,1,0.748766508093,,,2019_Jan_04_1408,59.9652263706,Stroop,pre,1002,
green,green,1,down,,,,,0,12,12,17,down,1,0.650670188241,,,2019_Jan_04_1408,59.9652263706,Stroop,pre,1002,
blue,blue,1,right,,,,,0,13,13,25,right,1,1.63415539518,,,2019_Jan_04_1408,59.9652263706,Stroop,pre,1002,
blue,blue,1,right,,,,,0,14,14,28,right,1,0.667773430929,,,2019_Jan_04_1408,59.9652263706,Stroop,pre,1002,
green,green,1,down,,,,,0,15,15,14,down,1,0.883977634353,,,2019_Jan_04_1408,59.9652263706,Stroop,pre,1002,
blue,blue,1,right,,,,,0,16,16,35,right,1,1.21801858976,,,2019_Jan_04_1408,59.9652263706,Stroop,pre,1002,
red,red,1,left,,,,,0,17,17,2,left,1,0.901194917666,,,2019_Jan_04_1408,59.9652263706,Stroop,pre,1002,
blue,blue,1,right,,,,,0,18,18,24,right,1,0.934405258185,,,2019_Jan_04_1408,59.9652263706,Stroop,pre,1002,
blue,red,0,left,,,,,0,19,19,44,left,1,1.31781468513,,,2019_Jan_04_1408,59.9652263706,Stroop,pre,1002,
blue,blue,1,right,,,,,0,20,20,32,right,1,1.01762868487,,,2019_Jan_04_1408,59.9652263706,Stroop,pre,1002,
blue,green,0,down,,,,,0,21,21,42,down,1,0.950955974046,,,2019_Jan_04_1408,59.9652263706,Stroop,pre,1002,
red,green,0,down,,,,,0,22,22,38,down,1,0.950564814704,,,2019_Jan_04_1408,59.9652263706,Stroop,pre,1002,
blue,blue,1,right,,,,,0,23,23,26,right,1,0.950903515359,,,2019_Jan_04_1408,59.9652263706,Stroop,pre,1002,
red,red,1,left,,,,,0,24,24,6,left,1,1.36816019971,,,2019_Jan_04_1408,59.9652263706,Stroop,pre,1002,
blue,blue,1,right,,,,,0,25,25,30,right,1,0.966244545295,,,2019_Jan_04_1408,59.9652263706,Stroop,pre,1002,
green,green,1,down,,,,,0,26,26,15,down,1,0.802304589964,,,2019_Jan_04_1408,59.9652263706,Stroop,pre,1002,
red,red,1,left,,,,,0,27,27,10,left,1,0.867713160459,,,2019_Jan_04_1408,59.9652263706,Stroop,pre,1002,
green,green,1,down,,,,,0,28,28,16,down,1,0.834135609128,,,2019_Jan_04_1408,59.9652263706,Stroop,pre,1002,
blue,blue,1,right,,,,,0,29,29,34,right,1,0.767708655854,,,2019_Jan_04_1408,59.9652263706,Stroop,pre,1002,
red,red,1,left,,,,,0,30,30,11,left,1,0.817673274751,,,2019_Jan_04_1408,59.9652263706,Stroop,pre,1002,
blue,blue,1,right,,,,,0,31,31,33,right,1,0.936377020586,,,2019_Jan_04_1408,59.9652263706,Stroop,pre,1002,
green,blue,0,right,,,,,0,32,32,41,right,1,0.867728555944,,,2019_Jan_04_1408,59.9652263706,Stroop,pre,1002,
green,green,1,down,,,,,0,33,33,13,down,1,0.817693516962,,,2019_Jan_04_1408,59.9652263706,Stroop,pre,1002,
green,blue,0,right,,,,,0,34,34,40,right,1,1.36787737896,,,2019_Jan_04_1408,59.9652263706,Stroop,pre,1002,
red,red,1,left,,,,,0,35,35,8,left,1,0.918946766407,,,2019_Jan_04_1408,59.9652263706,Stroop,pre,1002,
red,red,1,left,,,,,0,36,36,3,left,1,0.798187438311,,,2019_Jan_04_1408,59.9652263706,Stroop,pre,1002,
green,green,1,down,,,,,0,37,37,19,down,1,2.36829419744,,,2019_Jan_04_1408,59.9652263706,Stroop,pre,1002,
red,green,0,down,,,,,0,38,38,36,down,1,0.983036171976,,,2019_Jan_04_1408,59.9652263706,Stroop,pre,1002,
blue,blue,1,right,,,,,0,39,39,31,right,1,0.884196592352,,,2019_Jan_04_1408,59.9652263706,Stroop,pre,1002,
red,red,1,left,,,,,0,40,40,0,left,1,1.00114781889,,,2019_Jan_04_1408,59.9652263706,Stroop,pre,1002,
red,red,1,left,,,,,0,41,41,4,left,1,1.15123953606,,,2019_Jan_04_1408,59.9652263706,Stroop,pre,1002,
blue,blue,1,right,,,,,0,42,42,29,right,1,1.03424240817,,,2019_Jan_04_1408,59.9652263706,Stroop,pre,1002,
green,green,1,down,,,,,0,43,43,20,down,1,0.917698876871,,,2019_Jan_04_1408,59.9652263706,Stroop,pre,1002,
green,green,1,down,,,,,0,44,44,12,down,1,0.751003414947,,,2019_Jan_04_1408,59.9652263706,Stroop,pre,1002,
green,green,1,down,,,,,1,0,45,23,down,1,0.634258601942,,,2019_Jan_04_1408,59.9652263706,Stroop,pre,1002,
green,green,1,down,,,,,1,1,46,14,down,1,0.550935389714,,,2019_Jan_04_1408,59.9652263706,Stroop,pre,1002,
red,green,0,down,,,,,1,2,47,36,down,1,0.800799823921,,,2019_Jan_04_1408,59.9652263706,Stroop,pre,1002,
green,green,1,down,,,,,1,3,48,15,down,1,0.734285344468,,,2019_Jan_04_1408,59.9652263706,Stroop,pre,1002,
blue,blue,1,right,,,,,1,4,49,34,right,1,0.900970257635,,,2019_Jan_04_1408,59.9652263706,Stroop,pre,1002,
green,green,1,down,,,,,1,5,50,20,down,1,0.817963223039,,,2019_Jan_04_1408,59.9652263706,Stroop,pre,1002,
green,green,1,down,,,,,1,6,51,13,down,1,0.634307639411,,,2019_Jan_04_1408,59.9652263706,Stroop,pre,1002,
blue,blue,1,right,,,,,1,7,52,24,right,1,0.867295486671,,,2019_Jan_04_1408,59.9652263706,Stroop,pre,1002,
green,green,1,down,,,,,1,8,53,12,down,1,0.884354823719,,,2019_Jan_04_1408,59.9652263706,Stroop,pre,1002,
red,green,0,down,,,,,1,9,54,38,down,1,0.883050769175,,,2019_Jan_04_1408,59.9652263706,Stroop,pre,1002,
blue,red,0,left,,,,,1,10,55,44,left,1,1.41620950631,,,2019_Jan_04_1408,59.9652263706,Stroop,pre,1002,
blue,blue,1,right,,,,,1,11,56,27,right,1,1.08451550696,,,2019_Jan_04_1408,59.9652263706,Stroop,pre,1002,
blue,green,0,down,,,,,1,12,57,42,down,1,0.900785226721,,,2019_Jan_04_1408,59.9652263706,Stroop,pre,1002,
red,red,1,left,,,,,1,13,58,3,left,1,0.817432934134,,,2019_Jan_04_1408,59.9652263706,Stroop,pre,1002,
red,red,1,left,,,,,1,14,59,7,left,1,0.717996636942,,,2019_Jan_04_1408,59.9652263706,Stroop,pre,1002,
green,green,1,down,,,,,1,15,60,19,down,1,1.95126274333,,,2019_Jan_04_1408,59.9652263706,Stroop,pre,1002,
green,green,1,down,,,,,1,16,61,22,down,1,0.650942745334,,,2019_Jan_04_1408,59.9652263706,Stroop,pre,1002,
blue,blue,1,right,,,,,1,17,62,35,right,1,0.834448365541,,,2019_Jan_04_1408,59.9652263706,Stroop,pre,1002,
blue,blue,1,right,,,,,1,18,63,28,right,1,0.767678149987,,,2019_Jan_04_1408,59.9652263706,Stroop,pre,1002,
green,green,1,down,,,,,1,19,64,21,down,1,0.817259877486,,,2019_Jan_04_1408,59.9652263706,Stroop,pre,1002,
green,blue,0,right,,,,,1,20,65,41,right,1,1.08418136793,,,2019_Jan_04_1408,59.9652263706,Stroop,pre,1002,
green,blue,0,right,,,,,1,21,66,40,right,1,0.750862574775,,,2019_Jan_04_1408,59.9652263706,Stroop,pre,1002,
green,green,1,down,,,,,1,22,67,17,down,1,0.734107155992,,,2019_Jan_04_1408,59.9652263706,Stroop,pre,1002,
blue,blue,1,right,,,,,1,23,68,26,right,1,0.901031269369,,,2019_Jan_04_1408,59.9652263706,Stroop,pre,1002,
blue,blue,1,right,,,,,1,24,69,25,right,1,0.684338972072,,,2019_Jan_04_1408,59.9652263706,Stroop,pre,1002,
blue,blue,1,right,,,,,1,25,70,33,right,1,0.617657708205,,,2019_Jan_04_1408,59.9652263706,Stroop,pre,1002,
blue,blue,1,right,,,,,1,26,71,29,right,1,0.617325279784,,,2019_Jan_04_1408,59.9652263706,Stroop,pre,1002,
red,red,1,left,,,,,1,27,72,6,left,1,1.21783812047,,,2019_Jan_04_1408,59.9652263706,Stroop,pre,1002,
green,green,1,down,,,,,1,28,73,16,down,1,0.901115944533,,,2019_Jan_04_1408,59.9652263706,Stroop,pre,1002,
blue,red,0,left,,,,,1,29,74,43,left,1,1.10085610297,,,2019_Jan_04_1408,59.9652263706,Stroop,pre,1002,
blue,blue,1,right,,,,,1,30,75,31,right,1,1.1004971601,,,2019_Jan_04_1408,59.9652263706,Stroop,pre,1002,
red,red,1,left,,,,,1,31,76,0,left,1,1.21730498055,,,2019_Jan_04_1408,59.9652263706,Stroop,pre,1002,
green,red,0,left,,,,,1,32,77,39,left,1,1.2341630359,,,2019_Jan_04_1408,59.9652263706,Stroop,pre,1002,
blue,blue,1,right,,,,,1,33,78,30,right,1,1.13464947618,,,2019_Jan_04_1408,59.9652263706,Stroop,pre,1002,
red,red,1,left,,,,,1,34,79,5,left,1,0.950971084429,,,2019_Jan_04_1408,59.9652263706,Stroop,pre,1002,
red,red,1,left,,,,,1,35,80,11,left,1,1.06888994567,,,2019_Jan_04_1408,59.9652263706,Stroop,pre,1002,
red,red,1,left,,,,,1,36,81,8,left,1,0.600321537541,,,2019_Jan_04_1408,59.9652263706,Stroop,pre,1002,
blue,blue,1,right,,,,,1,37,82,32,right,1,0.917376997208,,,2019_Jan_04_1408,59.9652263706,Stroop,pre,1002,
green,green,1,down,,,,,1,38,83,18,down,1,1.11754138677,,,2019_Jan_04_1408,59.9652263706,Stroop,pre,1002,
red,red,1,left,,,,,1,39,84,10,left,1,0.801066964085,,,2019_Jan_04_1408,59.9652263706,Stroop,pre,1002,
red,red,1,left,,,,,1,40,85,9,left,1,0.817668428024,,,2019_Jan_04_1408,59.9652263706,Stroop,pre,1002,
red,red,1,left,,,,,1,41,86,4,left,1,0.717706973755,,,2019_Jan_04_1408,59.9652263706,Stroop,pre,1002,
red,red,1,left,,,,,1,42,87,2,left,1,0.717575256834,,,2019_Jan_04_1408,59.9652263706,Stroop,pre,1002,
red,red,1,left,,,,,1,43,88,1,left,1,0.817689240438,,,2019_Jan_04_1408,59.9652263706,Stroop,pre,1002,
red,blue,0,right,,,,,1,44,89,37,right,1,1.00087298098,,,2019_Jan_04_1408,59.9652263706,Stroop,pre,1002,
green,green,1,down,,,,,2,0,90,21,down,1,0.901063485845,,,2019_Jan_04_1408,59.9652263706,Stroop,pre,1002,
blue,blue,1,right,,,,,2,1,91,32,right,1,0.917728242332,,,2019_Jan_04_1408,59.9652263706,Stroop,pre,1002,
blue,green,0,down,,,,,2,2,92,42,down,1,1.56740941326,,,2019_Jan_04_1408,59.9652263706,Stroop,pre,1002,
red,red,1,left,,,,,2,3,93,11,left,1,1.11773097931,,,2019_Jan_04_1408,59.9652263706,Stroop,pre,1002,
blue,blue,1,right,,,,,2,4,94,25,right,1,1.08429369794,,,2019_Jan_04_1408,59.9652263706,Stroop,pre,1002,
green,green,1,down,,,,,2,5,95,12,down,1,0.967758719688,,,2019_Jan_04_1408,59.9652263706,Stroop,pre,1002,
green,green,1,down,,,,,2,6,96,13,down,1,0.717657080982,,,2019_Jan_04_1408,59.9652263706,Stroop,pre,1002,
blue,blue,1,right,,,,,2,7,97,34,right,1,0.917494459051,,,2019_Jan_04_1408,59.9652263706,Stroop,pre,1002,
blue,red,0,left,,,,,2,8,98,43,left,1,1.0014058358,,,2019_Jan_04_1408,59.9652263706,Stroop,pre,1002,
blue,blue,1,right,,,,,2,9,99,35,right,1,0.917994242089,,,2019_Jan_04_1408,59.9652263706,Stroop,pre,1002,
red,red,1,left,,,,,2,10,100,9,left,1,0.850974562668,,,2019_Jan_04_1408,59.9652263706,Stroop,pre,1002,
green,green,1,down,,,,,2,11,101,22,down,1,1.28185396984,,,2019_Jan_04_1408,59.9652263706,Stroop,pre,1002,
green,green,1,down,,,,,2,12,102,20,down,1,0.58488271777,,,2019_Jan_04_1408,59.9652263706,Stroop,pre,1002,
green,green,1,down,,,,,2,13,103,19,down,1,0.584184218944,,,2019_Jan_04_1408,59.9652263706,Stroop,pre,1002,
blue,blue,1,right,,,,,2,14,104,27,right,1,0.801189842858,,,2019_Jan_04_1408,59.9652263706,Stroop,pre,1002,
red,red,1,left,,,,,2,15,105,4,left,1,0.985232309306,,,2019_Jan_04_1408,59.9652263706,Stroop,pre,1002,
red,red,1,left,,,,,2,16,106,3,left,1,0.600437858979,,,2019_Jan_04_1408,59.9652263706,Stroop,pre,1002,
red,red,1,left,,,,,2,17,107,1,left,1,0.46771509915,,,2019_Jan_04_1408,59.9652263706,Stroop,pre,1002,
red,red,1,left,,,,,2,18,108,2,left,1,0.617734970729,,,2019_Jan_04_1408,59.9652263706,Stroop,pre,1002,
blue,blue,1,right,,,,,2,19,109,30,right,1,1.03331212178,,,2019_Jan_04_1408,59.9652263706,Stroop,pre,1002,
red,red,1,left,,,,,2,20,110,10,left,1,0.917451693817,,,2019_Jan_04_1408,59.9652263706,Stroop,pre,1002,
green,green,1,down,,,,,2,21,111,17,down,1,0.884003293493,,,2019_Jan_04_1408,59.9652263706,Stroop,pre,1002,
red,red,1,left,,,,,2,22,112,7,left,1,0.979784873765,,,2019_Jan_04_1408,59.9652263706,Stroop,pre,1002,
red,green,0,down,,,,,2,23,113,38,down,1,1.46912549658,,,2019_Jan_04_1408,59.9652263706,Stroop,pre,1002,
blue,blue,1,right,,,,,2,24,114,31,right,1,0.81720029126,,,2019_Jan_04_1408,59.9652263706,Stroop,pre,1002,
red,green,0,down,,,,,2,25,115,36,down,1,1.41771370215,,,2019_Jan_04_1408,59.9652263706,Stroop,pre,1002,
green,green,1,down,,,,,2,26,116,23,down,1,0.951045781038,,,2019_Jan_04_1408,59.9652263706,Stroop,pre,1002,
green,red,0,left,,,,,2,27,117,39,left,1,0.917535228575,,,2019_Jan_04_1408,59.9652263706,Stroop,pre,1002,
blue,blue,1,right,,,,,2,28,118,24,right,1,1.01785648101,,,2019_Jan_04_1408,59.9652263706,Stroop,pre,1002,
red,blue,0,right,,,,,2,29,119,37,right,1,0.784549890207,,,2019_Jan_04_1408,59.9652263706,Stroop,pre,1002,
blue,blue,1,right,,,,,2,30,120,28,right,1,0.601015189641,,,2019_Jan_04_1408,59.9652263706,Stroop,pre,1002,
green,blue,0,right,,,,,2,31,121,40,right,1,0.534227582892,,,2019_Jan_04_1408,59.9652263706,Stroop,pre,1002,
blue,blue,1,right,,,,,2,32,122,29,right,1,0.61720582223,,,2019_Jan_04_1408,59.9652263706,Stroop,pre,1002,
green,green,1,down,,,,,2,33,123,18,down,1,0.898835132039,,,2019_Jan_04_1408,59.9652263706,Stroop,pre,1002,
green,green,1,down,,,,,2,34,124,14,down,1,0.517583923921,,,2019_Jan_04_1408,59.9652263706,Stroop,pre,1002,
green,blue,0,right,,,,,2,35,125,41,right,1,0.867791563389,,,2019_Jan_04_1408,59.9652263706,Stroop,pre,1002,
green,green,1,down,,,,,2,36,126,15,down,1,0.667626888727,,,2019_Jan_04_1408,59.9652263706,Stroop,pre,1002,
green,green,1,down,,,,,2,37,127,16,down,1,0.584317361373,,,2019_Jan_04_1408,59.9652263706,Stroop,pre,1002,
blue,blue,1,right,,,,,2,38,128,26,right,1,0.684629205462,,,2019_Jan_04_1408,59.9652263706,Stroop,pre,1002,
red,red,1,left,,,,,2,39,129,5,left,1,0.917656111636,,,2019_Jan_04_1408,59.9652263706,Stroop,pre,1002,
blue,red,0,left,,,,,2,40,130,44,left,1,0.76715470352,,,2019_Jan_04_1408,59.9652263706,Stroop,pre,1002,
blue,blue,1,right,,,,,2,41,131,33,right,1,0.984371872793,,,2019_Jan_04_1408,59.9652263706,Stroop,pre,1002,
red,red,1,left,,,,,2,42,132,0,left,1,0.801186991842,,,2019_Jan_04_1408,59.9652263706,Stroop,pre,1002,
red,red,1,left,,,,,2,43,133,6,left,1,1.20114143261,,,2019_Jan_04_1408,59.9652263706,Stroop,pre,1002,
red,red,1,left,,,,,2,44,134,8,left,1,0.551107591057,,,2019_Jan_04_1408,59.9652263706,Stroop,pre,1002,
green,green,1,down,,,,,3,0,135,14,down,1,0.933907185757,,,2019_Jan_04_1408,59.9652263706,Stroop,pre,1002,
red,red,1,left,,,,,3,1,136,8,left,1,0.967923793493,,,2019_Jan_04_1408,59.9652263706,Stroop,pre,1002,
red,red,1,left,,,,,3,2,137,11,left,1,0.767856908667,,,2019_Jan_04_1408,59.9652263706,Stroop,pre,1002,
blue,blue,1,right,,,,,3,3,138,24,right,1,0.88467271196,,,2019_Jan_04_1408,59.9652263706,Stroop,pre,1002,
red,green,0,down,,,,,3,4,139,36,down,1,1.56471776941,,,2019_Jan_04_1408,59.9652263706,Stroop,pre,1002,
green,green,1,down,,,,,3,5,140,17,down,1,0.900822860127,,,2019_Jan_04_1408,59.9652263706,Stroop,pre,1002,
green,green,1,down,,,,,3,6,141,13,down,1,0.550979580456,,,2019_Jan_04_1408,59.9652263706,Stroop,pre,1002,
blue,blue,1,right,,,,,3,7,142,33,right,1,0.865954939128,,,2019_Jan_04_1408,59.9652263706,Stroop,pre,1002,
green,green,1,down,,,,,3,8,143,19,down,1,0.784513397208,,,2019_Jan_04_1408,59.9652263706,Stroop,pre,1002,
red,red,1,left,,,,,3,9,144,6,left,1,0.800458842453,,,2019_Jan_04_1408,59.9652263706,Stroop,pre,1002,
blue,blue,1,right,,,,,3,10,145,35,right,1,0.98398441977,,,2019_Jan_04_1408,59.9652263706,Stroop,pre,1002,
red,red,1,left,,,,,3,11,146,1,left,1,0.984209079801,,,2019_Jan_04_1408,59.9652263706,Stroop,pre,1002,
green,green,1,down,,,,,3,12,147,21,down,1,1.31771347407,,,2019_Jan_04_1408,59.9652263706,Stroop,pre,1002,
red,red,1,left,,,,,3,13,148,7,left,1,0.88445917089,,,2019_Jan_04_1408,59.9652263706,Stroop,pre,1002,
blue,blue,1,right,,,,,3,14,149,31,right,1,2.4854860497,,,2019_Jan_04_1408,59.9652263706,Stroop,pre,1002,
green,green,1,down,,,,,3,15,150,12,down,1,0.818586740154,,,2019_Jan_04_1408,59.9652263706,Stroop,pre,1002,
red,green,0,down,,,,,3,16,151,38,down,1,0.767539590629,,,2019_Jan_04_1408,59.9652263706,Stroop,pre,1002,
blue,blue,1,right,,,,,3,17,152,27,right,1,0.89936827196,,,2019_Jan_04_1408,59.9652263706,Stroop,pre,1002,
green,blue,0,right,,,,,3,18,153,40,right,1,0.683744535316,,,2019_Jan_04_1408,59.9652263706,Stroop,pre,1002,
green,green,1,down,,,,,3,19,154,16,down,1,0.833998475277,,,2019_Jan_04_1408,59.9652263706,Stroop,pre,1002,
blue,red,0,left,,,,,3,20,155,44,left,1,0.850992809168,,,2019_Jan_04_1408,59.9652263706,Stroop,pre,1002,
green,red,0,left,,,,,3,21,156,39,left,1,0.667713844703,,,2019_Jan_04_1408,59.9652263706,Stroop,pre,1002,
blue,blue,1,right,,,,,3,22,157,26,right,1,0.967242115659,,,2019_Jan_04_1408,59.9652263706,Stroop,pre,1002,
blue,blue,1,right,,,,,3,23,158,30,right,1,0.71769499949,,,2019_Jan_04_1408,59.9652263706,Stroop,pre,1002,
red,red,1,left,,,,,3,24,159,9,left,1,1.18437917139,,,2019_Jan_04_1408,59.9652263706,Stroop,pre,1002,
red,red,1,left,,,,,3,25,160,2,left,1,0.567602997216,,,2019_Jan_04_1408,59.9652263706,Stroop,pre,1002,
blue,blue,1,right,,,,,3,26,161,25,right,1,1.51785049388,,,2019_Jan_04_1408,59.9652263706,Stroop,pre,1002,
red,red,1,left,,,,,3,27,162,4,left,1,1.28443727509,,,2019_Jan_04_1408,59.9652263706,Stroop,pre,1002,
green,green,1,down,,,,,3,28,163,20,down,1,0.918012488589,,,2019_Jan_04_1408,59.9652263706,Stroop,pre,1002,
green,green,1,down,,,,,3,29,164,23,down,1,0.550881220418,,,2019_Jan_04_1408,59.9652263706,Stroop,pre,1002,
red,red,1,left,,,,,3,30,165,0,left,1,0.966666210504,,,2019_Jan_04_1408,59.9652263706,Stroop,pre,1002,
green,green,1,down,,,,,3,31,166,18,down,1,1.20140600686,,,2019_Jan_04_1408,59.9652263706,Stroop,pre,1002,
blue,blue,1,right,,,,,3,32,167,29,right,1,1.15153262047,,,2019_Jan_04_1408,59.9652263706,Stroop,pre,1002,
blue,blue,1,right,,,,,3,33,168,34,right,1,0.634319328574,,,2019_Jan_04_1408,59.9652263706,Stroop,pre,1002,
green,green,1,down,,,,,3,34,169,15,down,1,0.884648478328,,,2019_Jan_04_1408,59.9652263706,Stroop,pre,1002,
blue,red,0,left,,,,,3,35,170,43,left,1,1.54885870994,,,2019_Jan_04_1408,59.9652263706,Stroop,pre,1002,
blue,blue,1,right,,,,,3,36,171,32,right,1,1.11783019465,,,2019_Jan_04_1408,59.9652263706,Stroop,pre,1002,
blue,blue,1,right,,,,,3,37,172,28,right,1,1.68470561268,,,2019_Jan_04_1408,59.9652263706,Stroop,pre,1002,
green,green,1,down,,,,,3,38,173,22,down,1,0.782758311994,,,2019_Jan_04_1408,59.9652263706,Stroop,pre,1002,
red,red,1,left,,,,,3,39,174,3,left,1,0.934789004887,,,2019_Jan_04_1408,59.9652263706,Stroop,pre,1002,
red,blue,0,right,,,,,3,40,175,37,right,1,1.3177006445,,,2019_Jan_04_1408,59.9652263706,Stroop,pre,1002,
green,blue,0,right,,,,,3,41,176,41,right,1,0.750967207048,,,2019_Jan_04_1408,59.9652263706,Stroop,pre,1002,
red,red,1,left,,,,,3,42,177,10,left,1,0.984357617714,,,2019_Jan_04_1408,59.9652263706,Stroop,pre,1002,
red,red,1,left,,,,,3,43,178,5,left,1,0.600568435494,,,2019_Jan_04_1408,59.9652263706,Stroop,pre,1002,
blue,green,0,down,,,,,3,44,179,42,down,1,0.950952267726,,,2019_Jan_04_1408,59.9652263706,Stroop,pre,1002,
,,,,,,,,,,,,,,,space,2.77689576858,2019_Jan_04_1408,59.9652263706,Stroop,pre,1002,
