word,color,congruent,corrAns,practice.thisRepN,practice.thisTrialN,practice.thisN,practice.thisIndex,trials.thisRepN,trials.thisTrialN,trials.thisN,trials.thisIndex,resp_time.keys,resp_time.corr,resp_time.rt,key_resp_5.keys,key_resp_5.rt,date,frameRate,expName,Session,Participant,
red,red,1,left,0,0,0,0,,,,,left,1,1.29763872502,,,2018_Aug_15_1441,59.8606666103,Stroop,pre,1004,
blue,blue,1,right,0,1,1,5,,,,,right,1,1.28283535037,,,2018_Aug_15_1441,59.8606666103,Stroop,pre,1004,
blue,blue,1,right,0,2,2,4,,,,,right,1,1.44577332074,,,2018_Aug_15_1441,59.8606666103,Stroop,pre,1004,
green,red,0,left,0,3,3,8,,,,,down,0,1.56439666403,,,2018_Aug_15_1441,59.8606666103,Stroop,pre,1004,
red,green,0,down,0,4,4,7,,,,,down,1,2.1642481531,,,2018_Aug_15_1441,59.8606666103,Stroop,pre,1004,
red,red,1,left,0,5,5,1,,,,,left,1,1.36708245054,,,2018_Aug_15_1441,59.8606666103,Stroop,pre,1004,
blue,green,0,down,0,6,6,10,,,,,right,0,1.55293970089,,,2018_Aug_15_1441,59.8606666103,Stroop,pre,1004,
green,green,1,down,0,7,7,3,,,,,down,1,1.49753403524,,,2018_Aug_15_1441,59.8606666103,Stroop,pre,1004,
green,blue,0,right,0,8,8,9,,,,,right,1,1.08307212964,,,2018_Aug_15_1441,59.8606666103,Stroop,pre,1004,
green,green,1,down,0,9,9,2,,,,,down,1,2.99585525179,,,2018_Aug_15_1441,59.8606666103,Stroop,pre,1004,
blue,red,0,left,0,10,10,11,,,,,left,1,1.86442861566,,,2018_Aug_15_1441,59.8606666103,Stroop,pre,1004,
red,green,0,down,0,11,11,6,,,,,left,0,1.65766510693,,,2018_Aug_15_1441,59.8606666103,Stroop,pre,1004,
green,red,0,left,1,0,12,8,,,,,left,1,2.47520112386,,,2018_Aug_15_1441,59.8606666103,Stroop,pre,1004,
red,green,0,down,1,1,13,6,,,,,down,1,1.56973066274,,,2018_Aug_15_1441,59.8606666103,Stroop,pre,1004,
red,red,1,left,1,2,14,0,,,,,left,1,1.10054495791,,,2018_Aug_15_1441,59.8606666103,Stroop,pre,1004,
blue,blue,1,right,1,3,15,4,,,,,right,1,1.08819505293,,,2018_Aug_15_1441,59.8606666103,Stroop,pre,1004,
green,blue,0,right,1,4,16,9,,,,,right,1,1.9181090882,,,2018_Aug_15_1441,59.8606666103,Stroop,pre,1004,
red,green,0,down,1,5,17,7,,,,,down,1,2.7245982429,,,2018_Aug_15_1441,59.8606666103,Stroop,pre,1004,
red,red,1,left,1,6,18,1,,,,,left,1,1.39354047552,,,2018_Aug_15_1441,59.8606666103,Stroop,pre,1004,
green,green,1,down,1,7,19,3,,,,,down,1,2.0456895153,,,2018_Aug_15_1441,59.8606666103,Stroop,pre,1004,
blue,green,0,down,1,8,20,10,,,,,down,1,1.60643587308,,,2018_Aug_15_1441,59.8606666103,Stroop,pre,1004,
green,green,1,down,1,9,21,2,,,,,down,1,1.12070508907,,,2018_Aug_15_1441,59.8606666103,Stroop,pre,1004,
blue,red,0,left,1,10,22,11,,,,,left,1,1.60305911675,,,2018_Aug_15_1441,59.8606666103,Stroop,pre,1004,
blue,blue,1,right,1,11,23,5,,,,,right,1,1.28757494735,,,2018_Aug_15_1441,59.8606666103,Stroop,pre,1004,
blue,blue,1,right,,,,,0,0,0,24,right,1,2.51766069839,,,2018_Aug_15_1441,59.8606666103,Stroop,pre,1004,
green,green,1,down,,,,,0,1,1,23,down,1,1.04235961474,,,2018_Aug_15_1441,59.8606666103,Stroop,pre,1004,
red,red,1,left,,,,,0,2,2,9,left,1,1.06151881255,,,2018_Aug_15_1441,59.8606666103,Stroop,pre,1004,
blue,blue,1,right,,,,,0,3,3,30,right,1,1.52281709015,,,2018_Aug_15_1441,59.8606666103,Stroop,pre,1004,
red,red,1,left,,,,,0,4,4,3,left,1,1.17449176824,,,2018_Aug_15_1441,59.8606666103,Stroop,pre,1004,
red,red,1,left,,,,,0,5,5,11,left,1,0.733090336435,,,2018_Aug_15_1441,59.8606666103,Stroop,pre,1004,
blue,green,0,down,,,,,0,6,6,42,right,0,1.45191056514,,,2018_Aug_15_1441,59.8606666103,Stroop,pre,1004,
red,blue,0,right,,,,,0,7,7,37,right,1,3.54265993973,,,2018_Aug_15_1441,59.8606666103,Stroop,pre,1004,
red,red,1,left,,,,,0,8,8,8,left,1,1.41376218945,,,2018_Aug_15_1441,59.8606666103,Stroop,pre,1004,
red,red,1,left,,,,,0,9,9,7,left,1,0.662841580343,,,2018_Aug_15_1441,59.8606666103,Stroop,pre,1004,
red,green,0,down,,,,,0,10,10,36,down,1,1.65148145286,,,2018_Aug_15_1441,59.8606666103,Stroop,pre,1004,
blue,blue,1,right,,,,,0,11,11,28,right,1,4.29063263675,,,2018_Aug_15_1441,59.8606666103,Stroop,pre,1004,
red,red,1,left,,,,,0,12,12,0,left,1,2.4043999128,,,2018_Aug_15_1441,59.8606666103,Stroop,pre,1004,
green,green,1,down,,,,,0,13,13,12,down,1,1.11177344155,,,2018_Aug_15_1441,59.8606666103,Stroop,pre,1004,
green,blue,0,right,,,,,0,14,14,40,right,1,0.9404348596,,,2018_Aug_15_1441,59.8606666103,Stroop,pre,1004,
blue,red,0,left,,,,,0,15,15,43,left,1,2.33830706123,,,2018_Aug_15_1441,59.8606666103,Stroop,pre,1004,
blue,blue,1,right,,,,,0,16,16,29,right,1,2.19998500636,,,2018_Aug_15_1441,59.8606666103,Stroop,pre,1004,
blue,blue,1,right,,,,,0,17,17,35,right,1,0.751837647986,,,2018_Aug_15_1441,59.8606666103,Stroop,pre,1004,
blue,red,0,left,,,,,0,18,18,44,left,1,1.09767201496,,,2018_Aug_15_1441,59.8606666103,Stroop,pre,1004,
green,green,1,down,,,,,0,19,19,18,down,1,0.999838012271,,,2018_Aug_15_1441,59.8606666103,Stroop,pre,1004,
green,green,1,down,,,,,0,20,20,15,down,1,0.584116795566,,,2018_Aug_15_1441,59.8606666103,Stroop,pre,1004,
green,green,1,down,,,,,0,21,21,13,down,1,0.666383001953,,,2018_Aug_15_1441,59.8606666103,Stroop,pre,1004,
red,red,1,left,,,,,0,22,22,5,left,1,1.10037449095,,,2018_Aug_15_1441,59.8606666103,Stroop,pre,1004,
green,green,1,down,,,,,0,23,23,16,down,1,2.0689309868,,,2018_Aug_15_1441,59.8606666103,Stroop,pre,1004,
green,green,1,down,,,,,0,24,24,22,down,1,0.865076567046,,,2018_Aug_15_1441,59.8606666103,Stroop,pre,1004,
green,green,1,down,,,,,0,25,25,21,down,1,0.724051143508,,,2018_Aug_15_1441,59.8606666103,Stroop,pre,1004,
green,red,0,left,,,,,0,26,26,39,left,1,1.10329518188,,,2018_Aug_15_1441,59.8606666103,Stroop,pre,1004,
red,red,1,left,,,,,0,27,27,2,left,1,1.30294907233,,,2018_Aug_15_1441,59.8606666103,Stroop,pre,1004,
green,green,1,down,,,,,0,28,28,14,down,1,1.19908313965,,,2018_Aug_15_1441,59.8606666103,Stroop,pre,1004,
green,green,1,down,,,,,0,29,29,17,down,1,0.661372533068,,,2018_Aug_15_1441,59.8606666103,Stroop,pre,1004,
blue,blue,1,right,,,,,0,30,30,25,right,1,1.39653256582,,,2018_Aug_15_1441,59.8606666103,Stroop,pre,1004,
green,green,1,down,,,,,0,31,31,19,down,1,0.943937903736,,,2018_Aug_15_1441,59.8606666103,Stroop,pre,1004,
red,red,1,left,,,,,0,32,32,10,left,1,0.981404859107,,,2018_Aug_15_1441,59.8606666103,Stroop,pre,1004,
blue,blue,1,right,,,,,0,33,33,34,right,1,3.22819455341,,,2018_Aug_15_1441,59.8606666103,Stroop,pre,1004,
green,blue,0,right,,,,,0,34,34,41,right,1,1.05584655888,,,2018_Aug_15_1441,59.8606666103,Stroop,pre,1004,
red,red,1,left,,,,,0,35,35,4,left,1,1.00137667404,,,2018_Aug_15_1441,59.8606666103,Stroop,pre,1004,
blue,blue,1,right,,,,,0,36,36,31,right,1,0.915173670743,,,2018_Aug_15_1441,59.8606666103,Stroop,pre,1004,
blue,blue,1,right,,,,,0,37,37,32,right,1,0.621082614642,,,2018_Aug_15_1441,59.8606666103,Stroop,pre,1004,
blue,blue,1,right,,,,,0,38,38,33,right,1,0.564552851021,,,2018_Aug_15_1441,59.8606666103,Stroop,pre,1004,
blue,blue,1,right,,,,,0,39,39,27,right,1,0.549941809382,,,2018_Aug_15_1441,59.8606666103,Stroop,pre,1004,
red,red,1,left,,,,,0,40,40,1,left,1,3.9739199467,,,2018_Aug_15_1441,59.8606666103,Stroop,pre,1004,
red,red,1,left,,,,,0,41,41,6,left,1,0.439482120797,,,2018_Aug_15_1441,59.8606666103,Stroop,pre,1004,
blue,blue,1,right,,,,,0,42,42,26,right,1,0.979139705654,,,2018_Aug_15_1441,59.8606666103,Stroop,pre,1004,
red,green,0,down,,,,,0,43,43,38,down,1,1.10172483651,,,2018_Aug_15_1441,59.8606666103,Stroop,pre,1004,
green,green,1,down,,,,,0,44,44,20,down,1,0.618105249945,,,2018_Aug_15_1441,59.8606666103,Stroop,pre,1004,
blue,blue,1,right,,,,,1,0,45,30,right,1,1.08007780788,,,2018_Aug_15_1441,59.8606666103,Stroop,pre,1004,
green,green,1,down,,,,,1,1,46,14,down,1,1.48806555197,,,2018_Aug_15_1441,59.8606666103,Stroop,pre,1004,
red,red,1,left,,,,,1,2,47,4,left,1,1.06298741372,,,2018_Aug_15_1441,59.8606666103,Stroop,pre,1004,
red,red,1,left,,,,,1,3,48,5,left,1,0.672958014999,,,2018_Aug_15_1441,59.8606666103,Stroop,pre,1004,
green,green,1,down,,,,,1,4,49,16,down,1,1.17871951917,,,2018_Aug_15_1441,59.8606666103,Stroop,pre,1004,
blue,blue,1,right,,,,,1,5,50,26,right,1,0.832134116907,,,2018_Aug_15_1441,59.8606666103,Stroop,pre,1004,
red,red,1,left,,,,,1,6,51,9,left,1,0.805033495184,,,2018_Aug_15_1441,59.8606666103,Stroop,pre,1004,
green,green,1,down,,,,,1,7,52,17,down,1,0.758265399374,,,2018_Aug_15_1441,59.8606666103,Stroop,pre,1004,
red,green,0,down,,,,,1,8,53,36,down,1,0.88255073363,,,2018_Aug_15_1441,59.8606666103,Stroop,pre,1004,
green,green,1,down,,,,,1,9,54,19,down,1,0.623403995298,,,2018_Aug_15_1441,59.8606666103,Stroop,pre,1004,
red,red,1,left,,,,,1,10,55,8,left,1,0.916667261627,,,2018_Aug_15_1441,59.8606666103,Stroop,pre,1004,
green,green,1,down,,,,,1,11,56,22,down,1,0.846936152782,,,2018_Aug_15_1441,59.8606666103,Stroop,pre,1004,
blue,red,0,left,,,,,1,12,57,43,left,1,1.29261219129,,,2018_Aug_15_1441,59.8606666103,Stroop,pre,1004,
blue,blue,1,right,,,,,1,13,58,28,right,1,0.857551046647,,,2018_Aug_15_1441,59.8606666103,Stroop,pre,1004,
green,red,0,left,,,,,1,14,59,39,down,0,1.21002781019,,,2018_Aug_15_1441,59.8606666103,Stroop,pre,1004,
green,green,1,down,,,,,1,15,60,21,down,1,1.34864171129,,,2018_Aug_15_1441,59.8606666103,Stroop,pre,1004,
blue,blue,1,right,,,,,1,16,61,29,right,1,1.66564981686,,,2018_Aug_15_1441,59.8606666103,Stroop,pre,1004,
green,green,1,down,,,,,1,17,62,20,down,1,4.12508054776,,,2018_Aug_15_1441,59.8606666103,Stroop,pre,1004,
red,red,1,left,,,,,1,18,63,6,left,1,0.871030403767,,,2018_Aug_15_1441,59.8606666103,Stroop,pre,1004,
blue,blue,1,right,,,,,1,19,64,34,right,1,1.06989755947,,,2018_Aug_15_1441,59.8606666103,Stroop,pre,1004,
green,green,1,down,,,,,1,20,65,18,down,1,0.843732094392,,,2018_Aug_15_1441,59.8606666103,Stroop,pre,1004,
green,green,1,down,,,,,1,21,66,13,down,1,0.4297454427,,,2018_Aug_15_1441,59.8606666103,Stroop,pre,1004,
green,green,1,down,,,,,1,22,67,15,down,1,0.424214649014,,,2018_Aug_15_1441,59.8606666103,Stroop,pre,1004,
red,red,1,left,,,,,1,23,68,3,left,1,0.889065503608,,,2018_Aug_15_1441,59.8606666103,Stroop,pre,1004,
blue,blue,1,right,,,,,1,24,69,35,right,1,0.906257641967,,,2018_Aug_15_1441,59.8606666103,Stroop,pre,1004,
blue,green,0,down,,,,,1,25,70,42,down,1,1.2932128408,,,2018_Aug_15_1441,59.8606666103,Stroop,pre,1004,
blue,blue,1,right,,,,,1,26,71,33,right,1,1.14473820431,,,2018_Aug_15_1441,59.8606666103,Stroop,pre,1004,
blue,blue,1,right,,,,,1,27,72,24,right,1,0.507982478477,,,2018_Aug_15_1441,59.8606666103,Stroop,pre,1004,
blue,blue,1,right,,,,,1,28,73,25,right,1,0.502929616254,,,2018_Aug_15_1441,59.8606666103,Stroop,pre,1004,
green,blue,0,right,,,,,1,29,74,40,right,1,1.50893789483,,,2018_Aug_15_1441,59.8606666103,Stroop,pre,1004,
red,red,1,left,,,,,1,30,75,1,left,1,0.699594985694,,,2018_Aug_15_1441,59.8606666103,Stroop,pre,1004,
green,green,1,down,,,,,1,31,76,12,down,1,1.74455667054,,,2018_Aug_15_1441,59.8606666103,Stroop,pre,1004,
green,blue,0,right,,,,,1,32,77,41,right,1,1.49220539164,,,2018_Aug_15_1441,59.8606666103,Stroop,pre,1004,
red,blue,0,right,,,,,1,33,78,37,left,0,1.14676773874,,,2018_Aug_15_1441,59.8606666103,Stroop,pre,1004,
red,red,1,left,,,,,1,34,79,2,left,1,4.43418426812,,,2018_Aug_15_1441,59.8606666103,Stroop,pre,1004,
red,red,1,left,,,,,1,35,80,11,left,1,0.607418064494,,,2018_Aug_15_1441,59.8606666103,Stroop,pre,1004,
blue,red,0,left,,,,,1,36,81,44,left,1,1.73887593765,,,2018_Aug_15_1441,59.8606666103,Stroop,pre,1004,
blue,blue,1,right,,,,,1,37,82,31,right,1,0.86030484084,,,2018_Aug_15_1441,59.8606666103,Stroop,pre,1004,
red,red,1,left,,,,,1,38,83,7,left,1,1.02759238658,,,2018_Aug_15_1441,59.8606666103,Stroop,pre,1004,
blue,blue,1,right,,,,,1,39,84,32,right,1,2.26564633613,,,2018_Aug_15_1441,59.8606666103,Stroop,pre,1004,
red,green,0,down,,,,,1,40,85,38,down,1,1.83698438294,,,2018_Aug_15_1441,59.8606666103,Stroop,pre,1004,
green,green,1,down,,,,,1,41,86,23,down,1,1.20429397374,,,2018_Aug_15_1441,59.8606666103,Stroop,pre,1004,
blue,blue,1,right,,,,,1,42,87,27,right,1,1.3057648954,,,2018_Aug_15_1441,59.8606666103,Stroop,pre,1004,
red,red,1,left,,,,,1,43,88,10,left,1,1.48256822675,,,2018_Aug_15_1441,59.8606666103,Stroop,pre,1004,
red,red,1,left,,,,,1,44,89,0,left,1,0.584664787631,,,2018_Aug_15_1441,59.8606666103,Stroop,pre,1004,
blue,red,0,left,,,,,2,0,90,44,left,1,1.25559014501,,,2018_Aug_15_1441,59.8606666103,Stroop,pre,1004,
blue,green,0,down,,,,,2,1,91,42,down,1,1.05683142692,,,2018_Aug_15_1441,59.8606666103,Stroop,pre,1004,
blue,blue,1,right,,,,,2,2,92,26,right,1,1.39877183735,,,2018_Aug_15_1441,59.8606666103,Stroop,pre,1004,
red,blue,0,right,,,,,2,3,93,37,right,1,1.21150801377,,,2018_Aug_15_1441,59.8606666103,Stroop,pre,1004,
blue,red,0,left,,,,,2,4,94,43,down,0,1.49385159928,,,2018_Aug_15_1441,59.8606666103,Stroop,pre,1004,
red,red,1,left,,,,,2,5,95,7,down,0,0.76968220016,,,2018_Aug_15_1441,59.8606666103,Stroop,pre,1004,
blue,blue,1,right,,,,,2,6,96,31,right,1,3.93667700747,,,2018_Aug_15_1441,59.8606666103,Stroop,pre,1004,
red,red,1,left,,,,,2,7,97,4,left,1,2.29455783125,,,2018_Aug_15_1441,59.8606666103,Stroop,pre,1004,
blue,blue,1,right,,,,,2,8,98,32,right,1,5.755686088,,,2018_Aug_15_1441,59.8606666103,Stroop,pre,1004,
blue,blue,1,right,,,,,2,9,99,24,right,1,0.557598973624,,,2018_Aug_15_1441,59.8606666103,Stroop,pre,1004,
blue,blue,1,right,,,,,2,10,100,30,right,1,0.507680815179,,,2018_Aug_15_1441,59.8606666103,Stroop,pre,1004,
green,green,1,down,,,,,2,11,101,13,down,1,4.08809687849,,,2018_Aug_15_1441,59.8606666103,Stroop,pre,1004,
green,blue,0,right,,,,,2,12,102,40,right,1,1.54375547776,,,2018_Aug_15_1441,59.8606666103,Stroop,pre,1004,
red,red,1,left,,,,,2,13,103,2,left,1,0.923072254751,,,2018_Aug_15_1441,59.8606666103,Stroop,pre,1004,
red,red,1,left,,,,,2,14,104,9,left,1,0.681174327619,,,2018_Aug_15_1441,59.8606666103,Stroop,pre,1004,
blue,blue,1,right,,,,,2,15,105,35,right,1,2.19327299483,,,2018_Aug_15_1441,59.8606666103,Stroop,pre,1004,
green,green,1,down,,,,,2,16,106,23,down,1,1.29110075021,,,2018_Aug_15_1441,59.8606666103,Stroop,pre,1004,
green,green,1,down,,,,,2,17,107,14,down,1,0.499690750614,,,2018_Aug_15_1441,59.8606666103,Stroop,pre,1004,
blue,blue,1,right,,,,,2,18,108,34,right,1,2.56703041773,,,2018_Aug_15_1441,59.8606666103,Stroop,pre,1004,
red,red,1,left,,,,,2,19,109,1,left,1,1.16631026333,,,2018_Aug_15_1441,59.8606666103,Stroop,pre,1004,
blue,blue,1,right,,,,,2,20,110,28,right,1,2.64975715242,,,2018_Aug_15_1441,59.8606666103,Stroop,pre,1004,
green,green,1,down,,,,,2,21,111,18,down,1,1.22681877157,,,2018_Aug_15_1441,59.8606666103,Stroop,pre,1004,
green,green,1,down,,,,,2,22,112,19,down,1,0.578041579574,,,2018_Aug_15_1441,59.8606666103,Stroop,pre,1004,
red,red,1,left,,,,,2,23,113,8,left,1,1.19199315645,,,2018_Aug_15_1441,59.8606666103,Stroop,pre,1004,
blue,blue,1,right,,,,,2,24,114,25,right,1,4.77496621897,,,2018_Aug_15_1441,59.8606666103,Stroop,pre,1004,
green,green,1,down,,,,,2,25,115,15,left,0,1.14176396374,,,2018_Aug_15_1441,59.8606666103,Stroop,pre,1004,
blue,blue,1,right,,,,,2,26,116,33,right,1,1.13330043014,,,2018_Aug_15_1441,59.8606666103,Stroop,pre,1004,
green,green,1,down,,,,,2,27,117,12,down,1,0.805741244461,,,2018_Aug_15_1441,59.8606666103,Stroop,pre,1004,
red,red,1,left,,,,,2,28,118,3,left,1,2.14280372066,,,2018_Aug_15_1441,59.8606666103,Stroop,pre,1004,
red,red,1,left,,,,,2,29,119,5,left,1,0.57725305995,,,2018_Aug_15_1441,59.8606666103,Stroop,pre,1004,
green,green,1,down,,,,,2,30,120,22,down,1,3.34409534,,,2018_Aug_15_1441,59.8606666103,Stroop,pre,1004,
green,green,1,down,,,,,2,31,121,17,down,1,0.432572421618,,,2018_Aug_15_1441,59.8606666103,Stroop,pre,1004,
red,red,1,left,,,,,2,32,122,0,left,1,1.45867969608,,,2018_Aug_15_1441,59.8606666103,Stroop,pre,1004,
red,green,0,down,,,,,2,33,123,36,down,1,1.3192563015,,,2018_Aug_15_1441,59.8606666103,Stroop,pre,1004,
red,red,1,left,,,,,2,34,124,10,left,1,1.25838276278,,,2018_Aug_15_1441,59.8606666103,Stroop,pre,1004,
green,green,1,down,,,,,2,35,125,20,down,1,0.8063923195,,,2018_Aug_15_1441,59.8606666103,Stroop,pre,1004,
green,green,1,down,,,,,2,36,126,21,down,1,0.680199722759,,,2018_Aug_15_1441,59.8606666103,Stroop,pre,1004,
red,red,1,left,,,,,2,37,127,6,left,1,0.866143099032,,,2018_Aug_15_1441,59.8606666103,Stroop,pre,1004,
blue,blue,1,right,,,,,2,38,128,27,right,1,0.671637122054,,,2018_Aug_15_1441,59.8606666103,Stroop,pre,1004,
red,green,0,down,,,,,2,39,129,38,down,1,1.14721398661,,,2018_Aug_15_1441,59.8606666103,Stroop,pre,1004,
green,blue,0,right,,,,,2,40,130,41,right,1,2.09296320938,,,2018_Aug_15_1441,59.8606666103,Stroop,pre,1004,
red,red,1,left,,,,,2,41,131,11,left,1,0.811725425534,,,2018_Aug_15_1441,59.8606666103,Stroop,pre,1004,
blue,blue,1,right,,,,,2,42,132,29,right,1,0.762602034491,,,2018_Aug_15_1441,59.8606666103,Stroop,pre,1004,
green,red,0,left,,,,,2,43,133,39,left,1,1.55248274375,,,2018_Aug_15_1441,59.8606666103,Stroop,pre,1004,
green,green,1,down,,,,,2,44,134,16,down,1,1.29181608558,,,2018_Aug_15_1441,59.8606666103,Stroop,pre,1004,
green,green,1,down,,,,,3,0,135,23,down,1,0.682304672897,,,2018_Aug_15_1441,59.8606666103,Stroop,pre,1004,
blue,blue,1,right,,,,,3,1,136,32,right,1,0.761348525062,,,2018_Aug_15_1441,59.8606666103,Stroop,pre,1004,
green,green,1,down,,,,,3,2,137,21,down,1,0.867618393619,,,2018_Aug_15_1441,59.8606666103,Stroop,pre,1004,
blue,blue,1,right,,,,,3,3,138,30,right,1,1.10122414678,,,2018_Aug_15_1441,59.8606666103,Stroop,pre,1004,
blue,green,0,down,,,,,3,4,139,42,down,1,1.59259728668,,,2018_Aug_15_1441,59.8606666103,Stroop,pre,1004,
red,red,1,left,,,,,3,5,140,0,left,1,0.800148421898,,,2018_Aug_15_1441,59.8606666103,Stroop,pre,1004,
green,green,1,down,,,,,3,6,141,13,down,1,3.01111424481,,,2018_Aug_15_1441,59.8606666103,Stroop,pre,1004,
green,blue,0,right,,,,,3,7,142,40,right,1,1.17873915378,,,2018_Aug_15_1441,59.8606666103,Stroop,pre,1004,
blue,blue,1,right,,,,,3,8,143,25,right,1,2.90132705122,,,2018_Aug_15_1441,59.8606666103,Stroop,pre,1004,
red,green,0,down,,,,,3,9,144,38,down,1,1.21259016404,,,2018_Aug_15_1441,59.8606666103,Stroop,pre,1004,
red,red,1,left,,,,,3,10,145,5,left,1,0.834069047123,,,2018_Aug_15_1441,59.8606666103,Stroop,pre,1004,
green,green,1,down,,,,,3,11,146,20,down,1,0.873134461232,,,2018_Aug_15_1441,59.8606666103,Stroop,pre,1004,
blue,red,0,left,,,,,3,12,147,44,right,0,3.17721030954,,,2018_Aug_15_1441,59.8606666103,Stroop,pre,1004,
red,red,1,left,,,,,3,13,148,10,left,1,1.47804729175,,,2018_Aug_15_1441,59.8606666103,Stroop,pre,1004,
green,green,1,down,,,,,3,14,149,18,down,1,2.76280418457,,,2018_Aug_15_1441,59.8606666103,Stroop,pre,1004,
blue,blue,1,right,,,,,3,15,150,35,right,1,2.51809311239,,,2018_Aug_15_1441,59.8606666103,Stroop,pre,1004,
green,green,1,down,,,,,3,16,151,16,down,1,1.08807992144,,,2018_Aug_15_1441,59.8606666103,Stroop,pre,1004,
red,blue,0,right,,,,,3,17,152,37,right,1,1.8111631535,,,2018_Aug_15_1441,59.8606666103,Stroop,pre,1004,
blue,blue,1,right,,,,,3,18,153,33,right,1,1.1430643294,,,2018_Aug_15_1441,59.8606666103,Stroop,pre,1004,
blue,blue,1,right,,,,,3,19,154,26,right,1,0.627075274941,,,2018_Aug_15_1441,59.8606666103,Stroop,pre,1004,
red,red,1,left,,,,,3,20,155,2,left,1,0.889896863606,,,2018_Aug_15_1441,59.8606666103,Stroop,pre,1004,
blue,blue,1,right,,,,,3,21,156,34,right,1,0.552507733461,,,2018_Aug_15_1441,59.8606666103,Stroop,pre,1004,
red,red,1,left,,,,,3,22,157,9,left,1,1.30394420493,,,2018_Aug_15_1441,59.8606666103,Stroop,pre,1004,
red,red,1,left,,,,,3,23,158,6,left,1,0.566031269263,,,2018_Aug_15_1441,59.8606666103,Stroop,pre,1004,
green,green,1,down,,,,,3,24,159,15,down,1,0.865039528813,,,2018_Aug_15_1441,59.8606666103,Stroop,pre,1004,
green,blue,0,right,,,,,3,25,160,41,right,1,1.14103077864,,,2018_Aug_15_1441,59.8606666103,Stroop,pre,1004,
green,green,1,down,,,,,3,26,161,22,down,1,0.923557771835,,,2018_Aug_15_1441,59.8606666103,Stroop,pre,1004,
green,green,1,down,,,,,3,27,162,17,down,1,0.615546911955,,,2018_Aug_15_1441,59.8606666103,Stroop,pre,1004,
blue,red,0,left,,,,,3,28,163,43,left,1,1.59500479279,,,2018_Aug_15_1441,59.8606666103,Stroop,pre,1004,
blue,blue,1,right,,,,,3,29,164,24,right,1,1.13101787306,,,2018_Aug_15_1441,59.8606666103,Stroop,pre,1004,
red,red,1,left,,,,,3,30,165,3,left,1,0.885770411231,,,2018_Aug_15_1441,59.8606666103,Stroop,pre,1004,
green,red,0,left,,,,,3,31,166,39,left,1,1.24620377086,,,2018_Aug_15_1441,59.8606666103,Stroop,pre,1004,
green,green,1,down,,,,,3,32,167,12,down,1,0.819013542496,,,2018_Aug_15_1441,59.8606666103,Stroop,pre,1004,
green,green,1,down,,,,,3,33,168,19,down,1,0.509090511594,,,2018_Aug_15_1441,59.8606666103,Stroop,pre,1004,
blue,blue,1,right,,,,,3,34,169,27,right,1,0.651033420581,,,2018_Aug_15_1441,59.8606666103,Stroop,pre,1004,
red,red,1,left,,,,,3,35,170,4,left,1,2.65172153432,,,2018_Aug_15_1441,59.8606666103,Stroop,pre,1004,
red,red,1,left,,,,,3,36,171,7,left,1,0.521570274141,,,2018_Aug_15_1441,59.8606666103,Stroop,pre,1004,
red,red,1,left,,,,,3,37,172,11,left,1,0.489244092256,,,2018_Aug_15_1441,59.8606666103,Stroop,pre,1004,
red,green,0,down,,,,,3,38,173,36,down,1,2.25835598819,,,2018_Aug_15_1441,59.8606666103,Stroop,pre,1004,
red,red,1,left,,,,,3,39,174,8,left,1,0.925614081789,,,2018_Aug_15_1441,59.8606666103,Stroop,pre,1004,
green,green,1,down,,,,,3,40,175,14,down,1,1.28821085021,,,2018_Aug_15_1441,59.8606666103,Stroop,pre,1004,
red,red,1,left,,,,,3,41,176,1,left,1,1.06714153336,,,2018_Aug_15_1441,59.8606666103,Stroop,pre,1004,
blue,blue,1,right,,,,,3,42,177,29,right,1,0.938787759282,,,2018_Aug_15_1441,59.8606666103,Stroop,pre,1004,
blue,blue,1,right,,,,,3,43,178,31,right,1,0.496601377614,,,2018_Aug_15_1441,59.8606666103,Stroop,pre,1004,
blue,blue,1,right,,,,,3,44,179,28,right,1,0.377487161662,,,2018_Aug_15_1441,59.8606666103,Stroop,pre,1004,
,,,,,,,,,,,,,,,space,4.71030760743,2018_Aug_15_1441,59.8606666103,Stroop,pre,1004,
