word,color,congruent,corrAns,practice.thisRepN,practice.thisTrialN,practice.thisN,practice.thisIndex,trials.thisRepN,trials.thisTrialN,trials.thisN,trials.thisIndex,resp_time.keys,resp_time.corr,resp_time.rt,key_resp_5.keys,key_resp_5.rt,date,frameRate,expName,Session,Participant,
blue,blue,1,right,0,0,0,5,,,,,right,1,1.36483661666,,,2018_Dec_17_1304,59.9316534903,Stroop,foll,1004,
green,red,0,left,0,1,1,8,,,,,left,1,2.80030637049,,,2018_Dec_17_1304,59.9316534903,Stroop,foll,1004,
blue,blue,1,right,0,2,2,4,,,,,right,1,1.41602894126,,,2018_Dec_17_1304,59.9316534903,Stroop,foll,1004,
blue,red,0,left,0,3,3,11,,,,,left,1,1.8351971394,,,2018_Dec_17_1304,59.9316534903,Stroop,foll,1004,
red,green,0,down,0,4,4,7,,,,,down,1,0.599993214575,,,2018_Dec_17_1304,59.9316534903,Stroop,foll,1004,
green,green,1,down,0,5,5,2,,,,,down,1,1.19913597022,,,2018_Dec_17_1304,59.9316534903,Stroop,foll,1004,
green,green,1,down,0,6,6,3,,,,,down,1,0.684569544618,,,2018_Dec_17_1304,59.9316534903,Stroop,foll,1004,
red,red,1,left,0,7,7,1,,,,,left,1,2.19938030254,,,2018_Dec_17_1304,59.9316534903,Stroop,foll,1004,
red,green,0,down,0,8,8,6,,,,,down,1,4.11964585784,,,2018_Dec_17_1304,59.9316534903,Stroop,foll,1004,
red,red,1,left,0,9,9,0,,,,,left,1,1.51868472236,,,2018_Dec_17_1304,59.9316534903,Stroop,foll,1004,
green,blue,0,right,0,10,10,9,,,,,right,1,1.3838660272,,,2018_Dec_17_1304,59.9316534903,Stroop,foll,1004,
blue,green,0,down,0,11,11,10,,,,,down,1,1.78368835171,,,2018_Dec_17_1304,59.9316534903,Stroop,foll,1004,
green,blue,0,right,1,0,12,9,,,,,right,1,1.66691546558,,,2018_Dec_17_1304,59.9316534903,Stroop,foll,1004,
blue,blue,1,right,1,1,13,4,,,,,right,1,1.35080960383,,,2018_Dec_17_1304,59.9316534903,Stroop,foll,1004,
blue,blue,1,right,1,2,14,5,,,,,right,1,1.03458998642,,,2018_Dec_17_1304,59.9316534903,Stroop,foll,1004,
green,red,0,left,1,3,15,8,,,,,left,1,1.24995880278,,,2018_Dec_17_1304,59.9316534903,Stroop,foll,1004,
red,red,1,left,1,4,16,0,,,,,left,1,1.31732381701,,,2018_Dec_17_1304,59.9316534903,Stroop,foll,1004,
blue,green,0,down,1,5,17,10,,,,,down,1,1.71659646508,,,2018_Dec_17_1304,59.9316534903,Stroop,foll,1004,
green,green,1,down,1,6,18,3,,,,,down,1,0.780880383222,,,2018_Dec_17_1304,59.9316534903,Stroop,foll,1004,
red,green,0,down,1,7,19,6,,,,,down,1,1.79892334123,,,2018_Dec_17_1304,59.9316534903,Stroop,foll,1004,
red,red,1,left,1,8,20,1,,,,,left,1,2.61885213419,,,2018_Dec_17_1304,59.9316534903,Stroop,foll,1004,
red,green,0,down,1,9,21,7,,,,,down,1,2.35145364899,,,2018_Dec_17_1304,59.9316534903,Stroop,foll,1004,
green,green,1,down,1,10,22,2,,,,,down,1,0.946827072591,,,2018_Dec_17_1304,59.9316534903,Stroop,foll,1004,
blue,red,0,left,1,11,23,11,,,,,left,1,1.73339980009,,,2018_Dec_17_1304,59.9316534903,Stroop,foll,1004,
red,blue,0,right,,,,,0,0,0,37,right,1,1.59590599393,,,2018_Dec_17_1304,59.9316534903,Stroop,foll,1004,
green,green,1,down,,,,,0,1,1,18,down,1,0.880015726219,,,2018_Dec_17_1304,59.9316534903,Stroop,foll,1004,
blue,blue,1,right,,,,,0,2,2,31,right,1,0.983015910396,,,2018_Dec_17_1304,59.9316534903,Stroop,foll,1004,
blue,red,0,left,,,,,0,3,3,43,left,1,1.05080030951,,,2018_Dec_17_1304,59.9316534903,Stroop,foll,1004,
green,green,1,down,,,,,0,4,4,22,down,1,1.43531180738,,,2018_Dec_17_1304,59.9316534903,Stroop,foll,1004,
green,green,1,down,,,,,0,5,5,19,down,1,0.685516082883,,,2018_Dec_17_1304,59.9316534903,Stroop,foll,1004,
green,green,1,down,,,,,0,6,6,20,down,1,0.550313070382,,,2018_Dec_17_1304,59.9316534903,Stroop,foll,1004,
red,red,1,left,,,,,0,7,7,6,left,1,1.89976644453,,,2018_Dec_17_1304,59.9316534903,Stroop,foll,1004,
red,red,1,left,,,,,0,8,8,7,left,1,0.751078397887,,,2018_Dec_17_1304,59.9316534903,Stroop,foll,1004,
red,red,1,left,,,,,0,9,9,11,left,1,0.518078595748,,,2018_Dec_17_1304,59.9316534903,Stroop,foll,1004,
blue,blue,1,right,,,,,0,10,10,32,right,1,1.31832680545,,,2018_Dec_17_1304,59.9316534903,Stroop,foll,1004,
blue,blue,1,right,,,,,0,11,11,33,right,1,0.604122915406,,,2018_Dec_17_1304,59.9316534903,Stroop,foll,1004,
green,green,1,down,,,,,0,12,12,12,down,1,0.86757131396,,,2018_Dec_17_1304,59.9316534903,Stroop,foll,1004,
blue,blue,1,right,,,,,0,13,13,34,right,1,1.53417516318,,,2018_Dec_17_1304,59.9316534903,Stroop,foll,1004,
red,red,1,left,,,,,0,14,14,9,left,1,0.967724470695,,,2018_Dec_17_1304,59.9316534903,Stroop,foll,1004,
green,blue,0,right,,,,,0,15,15,41,right,1,1.66618218353,,,2018_Dec_17_1304,59.9316534903,Stroop,foll,1004,
blue,red,0,left,,,,,0,16,16,44,left,1,2.18257012509,,,2018_Dec_17_1304,59.9316534903,Stroop,foll,1004,
blue,blue,1,right,,,,,0,17,17,30,right,1,2.00187055348,,,2018_Dec_17_1304,59.9316534903,Stroop,foll,1004,
blue,blue,1,right,,,,,0,18,18,24,right,1,0.684416159804,,,2018_Dec_17_1304,59.9316534903,Stroop,foll,1004,
red,red,1,left,,,,,0,19,19,10,left,1,1.18320846821,,,2018_Dec_17_1304,59.9316534903,Stroop,foll,1004,
green,blue,0,right,,,,,0,20,20,40,right,1,1.53255036752,,,2018_Dec_17_1304,59.9316534903,Stroop,foll,1004,
red,red,1,left,,,,,0,21,21,0,left,1,1.88291236139,,,2018_Dec_17_1304,59.9316534903,Stroop,foll,1004,
red,green,0,down,,,,,0,22,22,36,down,1,1.00097647396,,,2018_Dec_17_1304,59.9316534903,Stroop,foll,1004,
green,green,1,down,,,,,0,23,23,13,down,1,0.650789532656,,,2018_Dec_17_1304,59.9316534903,Stroop,foll,1004,
blue,blue,1,right,,,,,0,24,24,26,right,1,0.849763565006,,,2018_Dec_17_1304,59.9316534903,Stroop,foll,1004,
red,red,1,left,,,,,0,25,25,5,left,1,1.01666905202,,,2018_Dec_17_1304,59.9316534903,Stroop,foll,1004,
green,green,1,down,,,,,0,26,26,23,down,1,0.88119718844,,,2018_Dec_17_1304,59.9316534903,Stroop,foll,1004,
blue,blue,1,right,,,,,0,27,27,25,right,1,1.91573699693,,,2018_Dec_17_1304,59.9316534903,Stroop,foll,1004,
red,red,1,left,,,,,0,28,28,1,left,1,1.14976316586,,,2018_Dec_17_1304,59.9316534903,Stroop,foll,1004,
green,green,1,down,,,,,0,29,29,16,down,1,1.56680535923,,,2018_Dec_17_1304,59.9316534903,Stroop,foll,1004,
red,red,1,left,,,,,0,30,30,4,left,1,1.23208975692,,,2018_Dec_17_1304,59.9316534903,Stroop,foll,1004,
blue,blue,1,right,,,,,0,31,31,29,right,1,0.882827971232,,,2018_Dec_17_1304,59.9316534903,Stroop,foll,1004,
blue,blue,1,right,,,,,0,32,32,35,right,1,0.468235088173,,,2018_Dec_17_1304,59.9316534903,Stroop,foll,1004,
blue,green,0,down,,,,,0,33,33,42,down,1,1.05151791096,,,2018_Dec_17_1304,59.9316534903,Stroop,foll,1004,
red,red,1,left,,,,,0,34,34,3,left,1,1.61650660096,,,2018_Dec_17_1304,59.9316534903,Stroop,foll,1004,
red,red,1,left,,,,,0,35,35,8,left,1,0.90106679424,,,2018_Dec_17_1304,59.9316534903,Stroop,foll,1004,
green,green,1,down,,,,,0,36,36,15,down,1,0.967628676461,,,2018_Dec_17_1304,59.9316534903,Stroop,foll,1004,
green,green,1,down,,,,,0,37,37,21,down,1,0.701742656773,,,2018_Dec_17_1304,59.9316534903,Stroop,foll,1004,
blue,blue,1,right,,,,,0,38,38,28,right,1,0.783222495223,,,2018_Dec_17_1304,59.9316534903,Stroop,foll,1004,
blue,blue,1,right,,,,,0,39,39,27,right,1,0.851755856991,,,2018_Dec_17_1304,59.9316534903,Stroop,foll,1004,
green,green,1,down,,,,,0,40,40,17,down,1,1.46633745002,,,2018_Dec_17_1304,59.9316534903,Stroop,foll,1004,
green,green,1,down,,,,,0,41,41,14,down,1,0.500969631517,,,2018_Dec_17_1304,59.9316534903,Stroop,foll,1004,
red,green,0,down,,,,,0,42,42,38,down,1,1.21700416078,,,2018_Dec_17_1304,59.9316534903,Stroop,foll,1004,
red,red,1,left,,,,,0,43,43,2,left,1,1.66826228689,,,2018_Dec_17_1304,59.9316534903,Stroop,foll,1004,
green,red,0,left,,,,,0,44,44,39,left,1,0.74969936006,,,2018_Dec_17_1304,59.9316534903,Stroop,foll,1004,
red,red,1,left,,,,,1,0,45,11,left,1,0.649035015644,,,2018_Dec_17_1304,59.9316534903,Stroop,foll,1004,
blue,blue,1,right,,,,,1,1,46,28,right,1,1.04922683219,,,2018_Dec_17_1304,59.9316534903,Stroop,foll,1004,
green,blue,0,right,,,,,1,2,47,41,right,1,1.51784053567,,,2018_Dec_17_1304,59.9316534903,Stroop,foll,1004,
blue,blue,1,right,,,,,1,3,48,33,right,1,1.09972208268,,,2018_Dec_17_1304,59.9316534903,Stroop,foll,1004,
blue,blue,1,right,,,,,1,4,49,32,right,1,0.700612797996,,,2018_Dec_17_1304,59.9316534903,Stroop,foll,1004,
green,green,1,down,,,,,1,5,50,12,down,1,1.4662901231,,,2018_Dec_17_1304,59.9316534903,Stroop,foll,1004,
green,green,1,down,,,,,1,6,51,15,down,1,0.502247173072,,,2018_Dec_17_1304,59.9316534903,Stroop,foll,1004,
green,green,1,down,,,,,1,7,52,21,down,1,0.383482850266,,,2018_Dec_17_1304,59.9316534903,Stroop,foll,1004,
blue,blue,1,right,,,,,1,8,53,34,right,1,3.74888425377,,,2018_Dec_17_1304,59.9316534903,Stroop,foll,1004,
red,green,0,down,,,,,1,9,54,36,down,1,1.51585537123,,,2018_Dec_17_1304,59.9316534903,Stroop,foll,1004,
green,green,1,down,,,,,1,10,55,18,down,1,0.767279027506,,,2018_Dec_17_1304,59.9316534903,Stroop,foll,1004,
green,green,1,down,,,,,1,11,56,20,down,1,0.751689656332,,,2018_Dec_17_1304,59.9316534903,Stroop,foll,1004,
green,green,1,down,,,,,1,12,57,17,down,1,0.485401357883,,,2018_Dec_17_1304,59.9316534903,Stroop,foll,1004,
blue,blue,1,right,,,,,1,13,58,26,right,1,1.71789139785,,,2018_Dec_17_1304,59.9316534903,Stroop,foll,1004,
green,green,1,down,,,,,1,14,59,23,down,1,1.03515078184,,,2018_Dec_17_1304,59.9316534903,Stroop,foll,1004,
blue,blue,1,right,,,,,1,15,60,31,right,1,3.45109276702,,,2018_Dec_17_1304,59.9316534903,Stroop,foll,1004,
blue,blue,1,right,,,,,1,16,61,25,right,1,0.501694645615,,,2018_Dec_17_1304,59.9316534903,Stroop,foll,1004,
red,red,1,left,,,,,1,17,62,9,left,1,1.84977924561,,,2018_Dec_17_1304,59.9316534903,Stroop,foll,1004,
blue,red,0,left,,,,,1,18,63,43,left,1,1.14845711412,,,2018_Dec_17_1304,59.9316534903,Stroop,foll,1004,
red,red,1,left,,,,,1,19,64,3,left,1,0.614795989643,,,2018_Dec_17_1304,59.9316534903,Stroop,foll,1004,
red,red,1,left,,,,,1,20,65,5,left,1,0.517071330781,,,2018_Dec_17_1304,59.9316534903,Stroop,foll,1004,
blue,green,0,down,,,,,1,21,66,42,down,1,1.3669574896,,,2018_Dec_17_1304,59.9316534903,Stroop,foll,1004,
blue,red,0,left,,,,,1,22,67,44,left,1,1.81878981092,,,2018_Dec_17_1304,59.9316534903,Stroop,foll,1004,
green,green,1,down,,,,,1,23,68,19,down,1,1.38495026968,,,2018_Dec_17_1304,59.9316534903,Stroop,foll,1004,
red,red,1,left,,,,,1,24,69,6,left,1,1.2484357885,,,2018_Dec_17_1304,59.9316534903,Stroop,foll,1004,
red,red,1,left,,,,,1,25,70,2,left,1,0.584727148941,,,2018_Dec_17_1304,59.9316534903,Stroop,foll,1004,
red,blue,0,right,,,,,1,26,71,37,right,1,1.8518180092,,,2018_Dec_17_1304,59.9316534903,Stroop,foll,1004,
red,green,0,down,,,,,1,27,72,38,down,1,1.43534202818,,,2018_Dec_17_1304,59.9316534903,Stroop,foll,1004,
green,green,1,down,,,,,1,28,73,14,down,1,0.516291577121,,,2018_Dec_17_1304,59.9316534903,Stroop,foll,1004,
green,blue,0,right,,,,,1,29,74,40,right,1,0.884197600696,,,2018_Dec_17_1304,59.9316534903,Stroop,foll,1004,
blue,blue,1,right,,,,,1,30,75,24,right,1,0.567121537224,,,2018_Dec_17_1304,59.9316534903,Stroop,foll,1004,
red,red,1,left,,,,,1,31,76,4,left,1,1.33332687102,,,2018_Dec_17_1304,59.9316534903,Stroop,foll,1004,
red,red,1,left,,,,,1,32,77,10,left,1,0.635050768094,,,2018_Dec_17_1304,59.9316534903,Stroop,foll,1004,
green,green,1,down,,,,,1,33,78,16,down,1,1.26630797048,,,2018_Dec_17_1304,59.9316534903,Stroop,foll,1004,
green,green,1,down,,,,,1,34,79,13,down,1,0.418721728584,,,2018_Dec_17_1304,59.9316534903,Stroop,foll,1004,
blue,blue,1,right,,,,,1,35,80,27,right,1,1.25094268939,,,2018_Dec_17_1304,59.9316534903,Stroop,foll,1004,
green,green,1,down,,,,,1,36,81,22,down,1,1.38313160474,,,2018_Dec_17_1304,59.9316534903,Stroop,foll,1004,
red,red,1,left,,,,,1,37,82,7,left,1,0.749418534701,,,2018_Dec_17_1304,59.9316534903,Stroop,foll,1004,
red,red,1,left,,,,,1,38,83,0,left,1,0.4838928838,,,2018_Dec_17_1304,59.9316534903,Stroop,foll,1004,
blue,blue,1,right,,,,,1,39,84,29,right,1,0.916169781595,,,2018_Dec_17_1304,59.9316534903,Stroop,foll,1004,
red,red,1,left,,,,,1,40,85,8,left,1,1.26509457685,,,2018_Dec_17_1304,59.9316534903,Stroop,foll,1004,
red,red,1,left,,,,,1,41,86,1,left,1,0.634813848425,,,2018_Dec_17_1304,59.9316534903,Stroop,foll,1004,
blue,blue,1,right,,,,,1,42,87,35,right,1,2.50013428299,,,2018_Dec_17_1304,59.9316534903,Stroop,foll,1004,
blue,blue,1,right,,,,,1,43,88,30,right,1,0.68463625846,,,2018_Dec_17_1304,59.9316534903,Stroop,foll,1004,
green,red,0,left,,,,,1,44,89,39,left,1,2.5324557137,,,2018_Dec_17_1304,59.9316534903,Stroop,foll,1004,
red,red,1,left,,,,,2,0,90,4,left,1,0.700432328501,,,2018_Dec_17_1304,59.9316534903,Stroop,foll,1004,
green,green,1,down,,,,,2,1,91,22,down,1,2.98136545557,,,2018_Dec_17_1304,59.9316534903,Stroop,foll,1004,
blue,blue,1,right,,,,,2,2,92,32,right,1,1.03285656695,,,2018_Dec_17_1304,59.9316534903,Stroop,foll,1004,
green,green,1,down,,,,,2,3,93,18,down,1,0.933069766143,,,2018_Dec_17_1304,59.9316534903,Stroop,foll,1004,
green,green,1,down,,,,,2,4,94,15,down,1,0.468299806302,,,2018_Dec_17_1304,59.9316534903,Stroop,foll,1004,
red,red,1,left,,,,,2,5,95,10,left,1,2.39998511768,,,2018_Dec_17_1304,59.9316534903,Stroop,foll,1004,
green,green,1,down,,,,,2,6,96,19,down,1,2.43293662356,,,2018_Dec_17_1304,59.9316534903,Stroop,foll,1004,
red,green,0,down,,,,,2,7,97,38,down,1,1.79992718498,,,2018_Dec_17_1304,59.9316534903,Stroop,foll,1004,
green,green,1,down,,,,,2,8,98,12,down,1,2.30063737378,,,2018_Dec_17_1304,59.9316534903,Stroop,foll,1004,
blue,blue,1,right,,,,,2,9,99,30,right,1,0.816629593918,,,2018_Dec_17_1304,59.9316534903,Stroop,foll,1004,
green,green,1,down,,,,,2,10,100,23,down,1,1.11790616613,,,2018_Dec_17_1304,59.9316534903,Stroop,foll,1004,
blue,red,0,left,,,,,2,11,101,44,left,1,4.33509507293,,,2018_Dec_17_1304,59.9316534903,Stroop,foll,1004,
red,red,1,left,,,,,2,12,102,9,left,1,0.601271041232,,,2018_Dec_17_1304,59.9316534903,Stroop,foll,1004,
red,red,1,left,,,,,2,13,103,1,left,1,0.401846262798,,,2018_Dec_17_1304,59.9316534903,Stroop,foll,1004,
blue,blue,1,right,,,,,2,14,104,31,right,1,2.4670308178,,,2018_Dec_17_1304,59.9316534903,Stroop,foll,1004,
red,blue,0,right,,,,,2,15,105,37,right,1,0.85050768093,,,2018_Dec_17_1304,59.9316534903,Stroop,foll,1004,
red,red,1,left,,,,,2,16,106,11,left,1,1.25191232091,,,2018_Dec_17_1304,59.9316534903,Stroop,foll,1004,
red,red,1,left,,,,,2,17,107,0,left,1,0.366899043712,,,2018_Dec_17_1304,59.9316534903,Stroop,foll,1004,
blue,blue,1,right,,,,,2,18,108,25,right,1,0.784827048642,,,2018_Dec_17_1304,59.9316534903,Stroop,foll,1004,
blue,green,0,down,,,,,2,19,109,42,down,1,0.668416527014,,,2018_Dec_17_1304,59.9316534903,Stroop,foll,1004,
red,red,1,left,,,,,2,20,110,3,left,1,1.0678588107,,,2018_Dec_17_1304,59.9316534903,Stroop,foll,1004,
blue,blue,1,right,,,,,2,21,111,24,right,1,2.71657935897,,,2018_Dec_17_1304,59.9316534903,Stroop,foll,1004,
red,red,1,left,,,,,2,22,112,2,left,1,1.35040304854,,,2018_Dec_17_1304,59.9316534903,Stroop,foll,1004,
blue,blue,1,right,,,,,2,23,113,28,right,1,2.56720678269,,,2018_Dec_17_1304,59.9316534903,Stroop,foll,1004,
green,green,1,down,,,,,2,24,114,13,left,0,1.2494481853,,,2018_Dec_17_1304,59.9316534903,Stroop,foll,1004,
red,red,1,left,,,,,2,25,115,5,left,1,3.30077450779,,,2018_Dec_17_1304,59.9316534903,Stroop,foll,1004,
red,red,1,left,,,,,2,26,116,7,left,1,0.40179665507,,,2018_Dec_17_1304,59.9316534903,Stroop,foll,1004,
green,red,0,left,,,,,2,27,117,39,left,1,0.534246723751,,,2018_Dec_17_1304,59.9316534903,Stroop,foll,1004,
green,green,1,down,,,,,2,28,118,20,down,1,1.01736299001,,,2018_Dec_17_1304,59.9316534903,Stroop,foll,1004,
blue,blue,1,right,,,,,2,29,119,27,right,1,1.06647121982,,,2018_Dec_17_1304,59.9316534903,Stroop,foll,1004,
green,blue,0,right,,,,,2,30,120,40,right,1,1.0502705902,,,2018_Dec_17_1304,59.9316534903,Stroop,foll,1004,
green,green,1,down,,,,,2,31,121,16,down,1,1.06801789756,,,2018_Dec_17_1304,59.9316534903,Stroop,foll,1004,
blue,red,0,left,,,,,2,32,122,43,left,1,1.48379908528,,,2018_Dec_17_1304,59.9316534903,Stroop,foll,1004,
red,red,1,left,,,,,2,33,123,8,left,1,0.899871932233,,,2018_Dec_17_1304,59.9316534903,Stroop,foll,1004,
green,green,1,down,,,,,2,34,124,14,down,1,0.900124817606,,,2018_Dec_17_1304,59.9316534903,Stroop,foll,1004,
blue,blue,1,right,,,,,2,35,125,34,right,1,0.649050696247,,,2018_Dec_17_1304,59.9316534903,Stroop,foll,1004,
red,green,0,down,,,,,2,36,126,36,down,1,1.11607068018,,,2018_Dec_17_1304,59.9316534903,Stroop,foll,1004,
blue,blue,1,right,,,,,2,37,127,33,right,1,0.982374146049,,,2018_Dec_17_1304,59.9316534903,Stroop,foll,1004,
green,green,1,down,,,,,2,38,128,17,down,1,0.916168070984,,,2018_Dec_17_1304,59.9316534903,Stroop,foll,1004,
blue,blue,1,right,,,,,2,39,129,35,right,1,2.91817547337,,,2018_Dec_17_1304,59.9316534903,Stroop,foll,1004,
blue,blue,1,right,,,,,2,40,130,26,right,1,0.569035996395,,,2018_Dec_17_1304,59.9316534903,Stroop,foll,1004,
red,red,1,left,,,,,2,41,131,6,left,1,1.19898287051,,,2018_Dec_17_1304,59.9316534903,Stroop,foll,1004,
green,green,1,down,,,,,2,42,132,21,down,1,1.04758236451,,,2018_Dec_17_1304,59.9316534903,Stroop,foll,1004,
green,blue,0,right,,,,,2,43,133,41,right,1,2.30134072013,,,2018_Dec_17_1304,59.9316534903,Stroop,foll,1004,
blue,blue,1,right,,,,,2,44,134,29,right,1,0.582584893364,,,2018_Dec_17_1304,59.9316534903,Stroop,foll,1004,
blue,blue,1,right,,,,,3,0,135,27,right,1,0.634897098175,,,2018_Dec_17_1304,59.9316534903,Stroop,foll,1004,
red,blue,0,right,,,,,3,1,136,37,right,1,0.482755897475,,,2018_Dec_17_1304,59.9316534903,Stroop,foll,1004,
red,green,0,down,,,,,3,2,137,38,down,1,1.06817384829,,,2018_Dec_17_1304,59.9316534903,Stroop,foll,1004,
green,green,1,down,,,,,3,3,138,12,down,1,0.666199859844,,,2018_Dec_17_1304,59.9316534903,Stroop,foll,1004,
red,red,1,left,,,,,3,4,139,1,left,1,0.76613890506,,,2018_Dec_17_1304,59.9316534903,Stroop,foll,1004,
blue,blue,1,right,,,,,3,5,140,26,right,1,1.48210187375,,,2018_Dec_17_1304,59.9316534903,Stroop,foll,1004,
red,red,1,left,,,,,3,6,141,10,left,1,1.21780928851,,,2018_Dec_17_1304,59.9316534903,Stroop,foll,1004,
red,red,1,left,,,,,3,7,142,2,left,1,0.451556627792,,,2018_Dec_17_1304,59.9316534903,Stroop,foll,1004,
green,green,1,down,,,,,3,8,143,19,down,1,1.53330303651,,,2018_Dec_17_1304,59.9316534903,Stroop,foll,1004,
red,red,1,left,,,,,3,9,144,9,left,1,1.75009109005,,,2018_Dec_17_1304,59.9316534903,Stroop,foll,1004,
green,red,0,left,,,,,3,10,145,39,left,1,0.650423176731,,,2018_Dec_17_1304,59.9316534903,Stroop,foll,1004,
green,green,1,down,,,,,3,11,146,15,down,1,0.884371797949,,,2018_Dec_17_1304,59.9316534903,Stroop,foll,1004,
blue,blue,1,right,,,,,3,12,147,25,right,1,0.684620862958,,,2018_Dec_17_1304,59.9316534903,Stroop,foll,1004,
blue,blue,1,right,,,,,3,13,148,24,right,1,0.567776416257,,,2018_Dec_17_1304,59.9316534903,Stroop,foll,1004,
blue,blue,1,right,,,,,3,14,149,29,right,1,0.53469062739,,,2018_Dec_17_1304,59.9316534903,Stroop,foll,1004,
red,red,1,left,,,,,3,15,150,4,left,1,1.58414468579,,,2018_Dec_17_1304,59.9316534903,Stroop,foll,1004,
red,green,0,down,,,,,3,16,151,36,down,1,1.18541601212,,,2018_Dec_17_1304,59.9316534903,Stroop,foll,1004,
green,green,1,down,,,,,3,17,152,16,down,1,3.6015983382,,,2018_Dec_17_1304,59.9316534903,Stroop,foll,1004,
blue,green,0,down,,,,,3,18,153,42,down,1,0.833276978194,,,2018_Dec_17_1304,59.9316534903,Stroop,foll,1004,
blue,blue,1,right,,,,,3,19,154,30,right,1,1.06799223839,,,2018_Dec_17_1304,59.9316534903,Stroop,foll,1004,
green,green,1,down,,,,,3,20,155,13,down,1,1.66513072777,,,2018_Dec_17_1304,59.9316534903,Stroop,foll,1004,
blue,blue,1,right,,,,,3,21,156,28,right,1,2.18328744143,,,2018_Dec_17_1304,59.9316534903,Stroop,foll,1004,
blue,red,0,left,,,,,3,22,157,44,left,1,1.56785054275,,,2018_Dec_17_1304,59.9316534903,Stroop,foll,1004,
green,green,1,down,,,,,3,23,158,17,down,1,1.89910700387,,,2018_Dec_17_1304,59.9316534903,Stroop,foll,1004,
green,green,1,down,,,,,3,24,159,18,down,1,0.684443244482,,,2018_Dec_17_1304,59.9316534903,Stroop,foll,1004,
red,red,1,left,,,,,3,25,160,5,left,1,3.85066078064,,,2018_Dec_17_1304,59.9316534903,Stroop,foll,1004,
blue,blue,1,right,,,,,3,26,161,35,right,1,3.2324492704,,,2018_Dec_17_1304,59.9316534903,Stroop,foll,1004,
blue,red,0,left,,,,,3,27,162,43,left,1,1.1840674802,,,2018_Dec_17_1304,59.9316534903,Stroop,foll,1004,
green,green,1,down,,,,,3,28,163,22,down,1,2.53314680067,,,2018_Dec_17_1304,59.9316534903,Stroop,foll,1004,
green,green,1,down,,,,,3,29,164,23,down,1,0.767648519552,,,2018_Dec_17_1304,59.9316534903,Stroop,foll,1004,
red,red,1,left,,,,,3,30,165,7,left,1,0.982850836403,,,2018_Dec_17_1304,59.9316534903,Stroop,foll,1004,
red,red,1,left,,,,,3,31,166,11,left,1,0.63486146044,,,2018_Dec_17_1304,59.9316534903,Stroop,foll,1004,
red,red,1,left,,,,,3,32,167,3,left,1,0.451580861452,,,2018_Dec_17_1304,59.9316534903,Stroop,foll,1004,
blue,blue,1,right,,,,,3,33,168,34,right,1,4.68318651536,,,2018_Dec_17_1304,59.9316534903,Stroop,foll,1004,
green,green,1,down,,,,,3,34,169,14,left,0,1.08443805563,,,2018_Dec_17_1304,59.9316534903,Stroop,foll,1004,
green,green,1,down,,,,,3,35,170,21,down,1,1.85271351423,,,2018_Dec_17_1304,59.9316534903,Stroop,foll,1004,
green,blue,0,right,,,,,3,36,171,40,right,1,3.56923186139,,,2018_Dec_17_1304,59.9316534903,Stroop,foll,1004,
green,green,1,down,,,,,3,37,172,20,down,1,2.32012266224,,,2018_Dec_17_1304,59.9316534903,Stroop,foll,1004,
blue,blue,1,right,,,,,3,38,173,32,right,1,1.48146866246,,,2018_Dec_17_1304,59.9316534903,Stroop,foll,1004,
blue,blue,1,right,,,,,3,39,174,31,right,1,0.483498872993,,,2018_Dec_17_1304,59.9316534903,Stroop,foll,1004,
red,red,1,left,,,,,3,40,175,6,left,1,0.732704436585,,,2018_Dec_17_1304,59.9316534903,Stroop,foll,1004,
red,red,1,left,,,,,3,41,176,0,left,1,0.668466134743,,,2018_Dec_17_1304,59.9316534903,Stroop,foll,1004,
blue,blue,1,right,,,,,3,42,177,33,right,1,4.48411041654,,,2018_Dec_17_1304,59.9316534903,Stroop,foll,1004,
green,blue,0,right,,,,,3,43,178,41,right,1,1.31602688853,,,2018_Dec_17_1304,59.9316534903,Stroop,foll,1004,
red,red,1,left,,,,,3,44,179,8,left,1,0.849708540341,,,2018_Dec_17_1304,59.9316534903,Stroop,foll,1004,
,,,,,,,,,,,,,,,space,3.20048649786,2018_Dec_17_1304,59.9316534903,Stroop,foll,1004,
