word,color,congruent,corrAns,practice.thisRepN,practice.thisTrialN,practice.thisN,practice.thisIndex,trials.thisRepN,trials.thisTrialN,trials.thisN,trials.thisIndex,resp_time.keys,resp_time.corr,resp_time.rt,key_resp_5.keys,key_resp_5.rt,date,frameRate,expName,Session,Participant,
blue,red,0,left,0,0,0,11,,,,,left,1,3.21842396817,,,2018_Nov_02_1822,59.9803344175,Stroop,post,1006,
red,green,0,down,0,1,1,6,,,,,down,1,1.01724467273,,,2018_Nov_02_1822,59.9803344175,Stroop,post,1006,
red,green,0,down,0,2,2,7,,,,,down,1,0.634441505361,,,2018_Nov_02_1822,59.9803344175,Stroop,post,1006,
green,green,1,down,0,3,3,3,,,,,down,1,0.651099723508,,,2018_Nov_02_1822,59.9803344175,Stroop,post,1006,
blue,blue,1,right,0,4,4,4,,,,,right,1,0.517593067234,,,2018_Nov_02_1822,59.9803344175,Stroop,post,1006,
blue,blue,1,right,0,5,5,5,,,,,right,1,0.634363102342,,,2018_Nov_02_1822,59.9803344175,Stroop,post,1006,
blue,green,0,down,0,6,6,10,,,,,down,1,0.733794381098,,,2018_Nov_02_1822,59.9803344175,Stroop,post,1006,
green,green,1,down,0,7,7,2,,,,,down,1,0.534191984189,,,2018_Nov_02_1822,59.9803344175,Stroop,post,1006,
red,red,1,left,0,8,8,0,,,,,left,1,0.434390928286,,,2018_Nov_02_1822,59.9803344175,Stroop,post,1006,
green,blue,0,right,0,9,9,9,,,,,right,1,0.751212965978,,,2018_Nov_02_1822,59.9803344175,Stroop,post,1006,
green,red,0,left,0,10,10,8,,,,,left,1,1.18461715663,,,2018_Nov_02_1822,59.9803344175,Stroop,post,1006,
red,red,1,left,0,11,11,1,,,,,left,1,0.501068846974,,,2018_Nov_02_1822,59.9803344175,Stroop,post,1006,
blue,green,0,down,1,0,12,10,,,,,down,1,0.417478969459,,,2018_Nov_02_1822,59.9803344175,Stroop,post,1006,
green,green,1,down,1,1,13,2,,,,,down,1,0.567213625133,,,2018_Nov_02_1822,59.9803344175,Stroop,post,1006,
red,green,0,down,1,2,14,7,,,,,down,1,0.467548277728,,,2018_Nov_02_1822,59.9803344175,Stroop,post,1006,
red,green,0,down,1,3,15,6,,,,,down,1,0.517598199069,,,2018_Nov_02_1822,59.9803344175,Stroop,post,1006,
blue,red,0,left,1,4,16,11,,,,,down,0,0.68378408892,,,2018_Nov_02_1822,59.9803344175,Stroop,post,1006,
red,red,1,left,1,5,17,1,,,,,left,1,0.551687546578,,,2018_Nov_02_1822,59.9803344175,Stroop,post,1006,
red,red,1,left,1,6,18,0,,,,,left,1,0.600924642439,,,2018_Nov_02_1822,59.9803344175,Stroop,post,1006,
green,blue,0,right,1,7,19,9,,,,,right,1,0.76765735771,,,2018_Nov_02_1822,59.9803344175,Stroop,post,1006,
blue,blue,1,right,1,8,20,4,,,,,right,1,0.516607755113,,,2018_Nov_02_1822,59.9803344175,Stroop,post,1006,
green,red,0,left,1,9,21,8,,,,,left,1,1.01771623125,,,2018_Nov_02_1822,59.9803344175,Stroop,post,1006,
blue,blue,1,right,1,10,22,5,,,,,right,1,0.884351270613,,,2018_Nov_02_1822,59.9803344175,Stroop,post,1006,
green,green,1,down,1,11,23,3,,,,,down,1,1.23159995188,,,2018_Nov_02_1822,59.9803344175,Stroop,post,1006,
green,green,1,down,,,,,0,0,0,13,down,1,0.617786708435,,,2018_Nov_02_1822,59.9803344175,Stroop,post,1006,
red,red,1,left,,,,,0,1,1,11,left,1,0.533592700023,,,2018_Nov_02_1822,59.9803344175,Stroop,post,1006,
blue,red,0,left,,,,,0,2,2,44,left,1,0.600815448417,,,2018_Nov_02_1822,59.9803344175,Stroop,post,1006,
blue,blue,1,right,,,,,0,3,3,31,right,1,0.534042020597,,,2018_Nov_02_1822,59.9803344175,Stroop,post,1006,
green,green,1,down,,,,,0,4,4,16,down,1,0.433986368708,,,2018_Nov_02_1822,59.9803344175,Stroop,post,1006,
red,green,0,down,,,,,0,5,5,36,down,1,0.684376530641,,,2018_Nov_02_1822,59.9803344175,Stroop,post,1006,
red,red,1,left,,,,,0,6,6,4,left,1,0.450496904079,,,2018_Nov_02_1822,59.9803344175,Stroop,post,1006,
blue,blue,1,right,,,,,0,7,7,30,right,1,0.483760026321,,,2018_Nov_02_1822,59.9803344175,Stroop,post,1006,
green,blue,0,right,,,,,0,8,8,40,right,1,0.534406095706,,,2018_Nov_02_1822,59.9803344175,Stroop,post,1006,
green,green,1,down,,,,,0,9,9,20,left,0,0.551095104857,,,2018_Nov_02_1822,59.9803344175,Stroop,post,1006,
blue,blue,1,right,,,,,0,10,10,26,right,1,0.63420116447,,,2018_Nov_02_1822,59.9803344175,Stroop,post,1006,
blue,blue,1,right,,,,,0,11,11,32,right,1,0.567632154703,,,2018_Nov_02_1822,59.9803344175,Stroop,post,1006,
green,red,0,left,,,,,0,12,12,39,left,1,1.1661325758,,,2018_Nov_02_1822,59.9803344175,Stroop,post,1006,
green,green,1,down,,,,,0,13,13,21,down,1,0.350425571587,,,2018_Nov_02_1822,59.9803344175,Stroop,post,1006,
green,green,1,down,,,,,0,14,14,17,left,0,1.9348619166,,,2018_Nov_02_1822,59.9803344175,Stroop,post,1006,
red,red,1,left,,,,,0,15,15,10,left,1,0.567790101149,,,2018_Nov_02_1822,59.9803344175,Stroop,post,1006,
green,blue,0,right,,,,,0,16,16,41,right,1,0.584150958028,,,2018_Nov_02_1822,59.9803344175,Stroop,post,1006,
blue,blue,1,right,,,,,0,17,17,35,left,0,0.384201592124,,,2018_Nov_02_1822,59.9803344175,Stroop,post,1006,
green,green,1,down,,,,,0,18,18,14,down,1,0.71769980938,,,2018_Nov_02_1822,59.9803344175,Stroop,post,1006,
blue,blue,1,right,,,,,0,19,19,28,right,1,0.567667507337,,,2018_Nov_02_1822,59.9803344175,Stroop,post,1006,
green,green,1,down,,,,,0,20,20,12,down,1,0.684300123335,,,2018_Nov_02_1822,59.9803344175,Stroop,post,1006,
red,red,1,left,,,,,0,21,21,6,left,1,0.434440821116,,,2018_Nov_02_1822,59.9803344175,Stroop,post,1006,
red,red,1,left,,,,,0,22,22,2,left,1,0.551113921581,,,2018_Nov_02_1822,59.9803344175,Stroop,post,1006,
red,red,1,left,,,,,0,23,23,9,left,1,0.384345568576,,,2018_Nov_02_1822,59.9803344175,Stroop,post,1006,
red,red,1,left,,,,,0,24,24,1,left,1,0.334339267824,,,2018_Nov_02_1822,59.9803344175,Stroop,post,1006,
blue,green,0,down,,,,,0,25,25,42,down,1,0.984299439091,,,2018_Nov_02_1822,59.9803344175,Stroop,post,1006,
green,green,1,down,,,,,0,26,26,22,down,1,0.465775229094,,,2018_Nov_02_1822,59.9803344175,Stroop,post,1006,
red,green,0,down,,,,,0,27,27,38,down,1,0.384255761482,,,2018_Nov_02_1822,59.9803344175,Stroop,post,1006,
red,red,1,left,,,,,0,28,28,7,left,1,0.567690030386,,,2018_Nov_02_1822,59.9803344175,Stroop,post,1006,
blue,blue,1,right,,,,,0,29,29,24,right,1,0.584259866949,,,2018_Nov_02_1822,59.9803344175,Stroop,post,1006,
green,green,1,down,,,,,0,30,30,18,down,1,0.851256643587,,,2018_Nov_02_1822,59.9803344175,Stroop,post,1006,
red,blue,0,right,,,,,0,31,31,37,right,1,0.617739381522,,,2018_Nov_02_1822,59.9803344175,Stroop,post,1006,
blue,blue,1,right,,,,,0,32,32,29,right,1,0.500899781555,,,2018_Nov_02_1822,59.9803344175,Stroop,post,1006,
red,red,1,left,,,,,0,33,33,5,left,1,0.384263744334,,,2018_Nov_02_1822,59.9803344175,Stroop,post,1006,
red,red,1,left,,,,,0,34,34,0,left,1,0.317519111805,,,2018_Nov_02_1822,59.9803344175,Stroop,post,1006,
red,red,1,left,,,,,0,35,35,8,left,1,0.284239738756,,,2018_Nov_02_1822,59.9803344175,Stroop,post,1006,
blue,blue,1,right,,,,,0,36,36,34,right,1,0.617564328963,,,2018_Nov_02_1822,59.9803344175,Stroop,post,1006,
red,red,1,left,,,,,0,37,37,3,left,1,0.501119880211,,,2018_Nov_02_1822,59.9803344175,Stroop,post,1006,
green,green,1,down,,,,,0,38,38,15,down,1,0.585376611039,,,2018_Nov_02_1822,59.9803344175,Stroop,post,1006,
green,green,1,down,,,,,0,39,39,19,down,1,0.417715889127,,,2018_Nov_02_1822,59.9803344175,Stroop,post,1006,
green,green,1,down,,,,,0,40,40,23,down,1,0.300461180812,,,2018_Nov_02_1822,59.9803344175,Stroop,post,1006,
blue,blue,1,right,,,,,0,41,41,33,right,1,0.5011181696,,,2018_Nov_02_1822,59.9803344175,Stroop,post,1006,
blue,blue,1,right,,,,,0,42,42,25,right,1,0.300423832466,,,2018_Nov_02_1822,59.9803344175,Stroop,post,1006,
blue,red,0,left,,,,,0,43,43,43,left,1,0.35074802182,,,2018_Nov_02_1822,59.9803344175,Stroop,post,1006,
blue,blue,1,right,,,,,0,44,44,27,left,0,0.383802449482,,,2018_Nov_02_1822,59.9803344175,Stroop,post,1006,
green,green,1,down,,,,,1,0,45,18,left,0,0.534438882423,,,2018_Nov_02_1822,59.9803344175,Stroop,post,1006,
blue,green,0,down,,,,,1,1,46,42,down,1,0.500831642204,,,2018_Nov_02_1822,59.9803344175,Stroop,post,1006,
red,green,0,down,,,,,1,2,47,38,down,1,0.350868049715,,,2018_Nov_02_1822,59.9803344175,Stroop,post,1006,
green,blue,0,right,,,,,1,3,48,40,right,1,0.534385853472,,,2018_Nov_02_1822,59.9803344175,Stroop,post,1006,
red,blue,0,right,,,,,1,4,49,37,down,0,0.401746192037,,,2018_Nov_02_1822,59.9803344175,Stroop,post,1006,
red,red,1,left,,,,,1,5,50,6,left,1,1.18555599715,,,2018_Nov_02_1822,59.9803344175,Stroop,post,1006,
green,green,1,down,,,,,1,6,51,12,down,1,1.05113074259,,,2018_Nov_02_1822,59.9803344175,Stroop,post,1006,
green,green,1,down,,,,,1,7,52,21,down,1,0.433720653749,,,2018_Nov_02_1822,59.9803344175,Stroop,post,1006,
green,green,1,down,,,,,1,8,53,13,down,1,0.350855790333,,,2018_Nov_02_1822,59.9803344175,Stroop,post,1006,
blue,blue,1,right,,,,,1,9,54,27,down,0,0.284279367917,,,2018_Nov_02_1822,59.9803344175,Stroop,post,1006,
green,green,1,down,,,,,1,10,55,23,down,1,0.734369716706,,,2018_Nov_02_1822,59.9803344175,Stroop,post,1006,
blue,blue,1,right,,,,,1,11,56,33,right,1,0.584351099553,,,2018_Nov_02_1822,59.9803344175,Stroop,post,1006,
green,green,1,down,,,,,1,12,57,16,down,1,0.601143600688,,,2018_Nov_02_1822,59.9803344175,Stroop,post,1006,
blue,red,0,left,,,,,1,13,58,43,left,1,0.600504972463,,,2018_Nov_02_1822,59.9803344175,Stroop,post,1006,
blue,blue,1,right,,,,,1,14,59,30,right,1,0.617409803742,,,2018_Nov_02_1822,59.9803344175,Stroop,post,1006,
red,red,1,left,,,,,1,15,60,3,down,0,0.384295960847,,,2018_Nov_02_1822,59.9803344175,Stroop,post,1006,
red,red,1,left,,,,,1,16,61,7,left,1,0.700932967415,,,2018_Nov_02_1822,59.9803344175,Stroop,post,1006,
green,green,1,down,,,,,1,17,62,14,right,0,0.433754865976,,,2018_Nov_02_1822,59.9803344175,Stroop,post,1006,
red,red,1,left,,,,,1,18,63,11,left,1,0.584328576504,,,2018_Nov_02_1822,59.9803344175,Stroop,post,1006,
blue,blue,1,right,,,,,1,19,64,29,right,1,0.633893539534,,,2018_Nov_02_1822,59.9803344175,Stroop,post,1006,
blue,blue,1,right,,,,,1,20,65,32,left,0,1.08424618206,,,2018_Nov_02_1822,59.9803344175,Stroop,post,1006,
blue,blue,1,right,,,,,1,21,66,28,left,0,0.534197971329,,,2018_Nov_02_1822,59.9803344175,Stroop,post,1006,
red,red,1,left,,,,,1,22,67,10,left,1,2.26815058397,,,2018_Nov_02_1822,59.9803344175,Stroop,post,1006,
blue,blue,1,right,,,,,1,23,68,24,right,1,0.484236146472,,,2018_Nov_02_1822,59.9803344175,Stroop,post,1006,
blue,blue,1,right,,,,,1,24,69,25,right,1,0.300784771453,,,2018_Nov_02_1822,59.9803344175,Stroop,post,1006,
green,green,1,down,,,,,1,25,70,15,down,1,0.567659239383,,,2018_Nov_02_1822,59.9803344175,Stroop,post,1006,
blue,blue,1,right,,,,,1,26,71,26,right,1,0.76762257528,,,2018_Nov_02_1822,59.9803344175,Stroop,post,1006,
green,green,1,down,,,,,1,27,72,19,down,1,1.13469353543,,,2018_Nov_02_1822,59.9803344175,Stroop,post,1006,
blue,blue,1,right,,,,,1,28,73,31,down,0,0.651340349501,,,2018_Nov_02_1822,59.9803344175,Stroop,post,1006,
green,red,0,left,,,,,1,29,74,39,left,1,1.83450291631,,,2018_Nov_02_1822,59.9803344175,Stroop,post,1006,
red,red,1,left,,,,,1,30,75,9,down,0,0.834366067401,,,2018_Nov_02_1822,59.9803344175,Stroop,post,1006,
red,red,1,left,,,,,1,31,76,2,left,1,0.484313979287,,,2018_Nov_02_1822,59.9803344175,Stroop,post,1006,
green,blue,0,right,,,,,1,32,77,41,right,1,0.75097918243,,,2018_Nov_02_1822,59.9803344175,Stroop,post,1006,
blue,blue,1,right,,,,,1,33,78,35,right,1,0.549576367106,,,2018_Nov_02_1822,59.9803344175,Stroop,post,1006,
blue,blue,1,right,,,,,1,34,79,34,right,1,0.450367752925,,,2018_Nov_02_1822,59.9803344175,Stroop,post,1006,
blue,red,0,left,,,,,1,35,80,44,left,1,0.450895191414,,,2018_Nov_02_1822,59.9803344175,Stroop,post,1006,
green,green,1,down,,,,,1,36,81,20,down,1,0.417535989837,,,2018_Nov_02_1822,59.9803344175,Stroop,post,1006,
red,red,1,left,,,,,1,37,82,0,left,1,0.501157798763,,,2018_Nov_02_1822,59.9803344175,Stroop,post,1006,
red,green,0,down,,,,,1,38,83,36,down,1,0.834135990179,,,2018_Nov_02_1822,59.9803344175,Stroop,post,1006,
red,red,1,left,,,,,1,39,84,1,left,1,0.750785028045,,,2018_Nov_02_1822,59.9803344175,Stroop,post,1006,
green,green,1,down,,,,,1,40,85,22,down,1,0.78434465625,,,2018_Nov_02_1822,59.9803344175,Stroop,post,1006,
red,red,1,left,,,,,1,41,86,4,left,1,0.534432895284,,,2018_Nov_02_1822,59.9803344175,Stroop,post,1006,
red,red,1,left,,,,,1,42,87,5,left,1,0.734507706019,,,2018_Nov_02_1822,59.9803344175,Stroop,post,1006,
green,green,1,down,,,,,1,43,88,17,down,1,0.832366362767,,,2018_Nov_02_1822,59.9803344175,Stroop,post,1006,
red,red,1,left,,,,,1,44,89,8,left,1,0.717347423449,,,2018_Nov_02_1822,59.9803344175,Stroop,post,1006,
green,green,1,down,,,,,2,0,90,23,down,1,0.467601021577,,,2018_Nov_02_1822,59.9803344175,Stroop,post,1006,
green,green,1,down,,,,,2,1,91,22,down,1,0.534241591918,,,2018_Nov_02_1822,59.9803344175,Stroop,post,1006,
green,green,1,down,,,,,2,2,92,12,down,1,0.367458413613,,,2018_Nov_02_1822,59.9803344175,Stroop,post,1006,
blue,blue,1,right,,,,,2,3,93,28,right,1,0.600791214756,,,2018_Nov_02_1822,59.9803344175,Stroop,post,1006,
red,red,1,left,,,,,2,4,94,3,left,1,0.550294823862,,,2018_Nov_02_1822,59.9803344175,Stroop,post,1006,
green,green,1,down,,,,,2,5,95,18,down,1,0.817391101058,,,2018_Nov_02_1822,59.9803344175,Stroop,post,1006,
green,green,1,down,,,,,2,6,96,17,down,1,0.351040821459,,,2018_Nov_02_1822,59.9803344175,Stroop,post,1006,
green,green,1,down,,,,,2,7,97,13,down,1,0.284407663767,,,2018_Nov_02_1822,59.9803344175,Stroop,post,1006,
red,red,1,left,,,,,2,8,98,8,left,1,0.617621919546,,,2018_Nov_02_1822,59.9803344175,Stroop,post,1006,
blue,blue,1,right,,,,,2,9,99,26,right,1,0.767349447672,,,2018_Nov_02_1822,59.9803344175,Stroop,post,1006,
red,red,1,left,,,,,2,10,100,9,left,1,1.03445798425,,,2018_Nov_02_1822,59.9803344175,Stroop,post,1006,
red,green,0,down,,,,,2,11,101,38,down,1,0.700875091731,,,2018_Nov_02_1822,59.9803344175,Stroop,post,1006,
red,red,1,left,,,,,2,12,102,11,left,1,0.68444752101,,,2018_Nov_02_1822,59.9803344175,Stroop,post,1006,
green,green,1,down,,,,,2,13,103,20,down,1,0.551364241039,,,2018_Nov_02_1822,59.9803344175,Stroop,post,1006,
blue,green,0,down,,,,,2,14,104,42,down,1,0.384207009059,,,2018_Nov_02_1822,59.9803344175,Stroop,post,1006,
red,blue,0,right,,,,,2,15,105,37,right,1,1.15060393133,,,2018_Nov_02_1822,59.9803344175,Stroop,post,1006,
green,blue,0,right,,,,,2,16,106,40,right,1,0.551042075906,,,2018_Nov_02_1822,59.9803344175,Stroop,post,1006,
blue,red,0,left,,,,,2,17,107,44,left,1,1.10088928981,,,2018_Nov_02_1822,59.9803344175,Stroop,post,1006,
red,red,1,left,,,,,2,18,108,6,left,1,0.46756966037,,,2018_Nov_02_1822,59.9803344175,Stroop,post,1006,
red,red,1,left,,,,,2,19,109,2,left,1,0.450833039203,,,2018_Nov_02_1822,59.9803344175,Stroop,post,1006,
blue,blue,1,right,,,,,2,20,110,25,down,0,0.483964729475,,,2018_Nov_02_1822,59.9803344175,Stroop,post,1006,
blue,red,0,left,,,,,2,21,111,43,left,1,0.884345568576,,,2018_Nov_02_1822,59.9803344175,Stroop,post,1006,
red,red,1,left,,,,,2,22,112,5,left,1,0.50047754566,,,2018_Nov_02_1822,59.9803344175,Stroop,post,1006,
blue,blue,1,right,,,,,2,23,113,31,right,1,0.515559720577,,,2018_Nov_02_1822,59.9803344175,Stroop,post,1006,
blue,blue,1,right,,,,,2,24,114,29,right,1,0.400947621652,,,2018_Nov_02_1822,59.9803344175,Stroop,post,1006,
red,red,1,left,,,,,2,25,115,0,left,1,0.551076858337,,,2018_Nov_02_1822,59.9803344175,Stroop,post,1006,
green,green,1,down,,,,,2,26,116,21,down,1,0.583991586073,,,2018_Nov_02_1822,59.9803344175,Stroop,post,1006,
blue,blue,1,right,,,,,2,27,117,32,left,0,0.417600137761,,,2018_Nov_02_1822,59.9803344175,Stroop,post,1006,
red,red,1,left,,,,,2,28,118,1,left,1,0.384479281362,,,2018_Nov_02_1822,59.9803344175,Stroop,post,1006,
green,green,1,down,,,,,2,29,119,16,down,1,0.551168661144,,,2018_Nov_02_1822,59.9803344175,Stroop,post,1006,
blue,blue,1,right,,,,,2,30,120,34,right,1,1.01790924523,,,2018_Nov_02_1822,59.9803344175,Stroop,post,1006,
blue,blue,1,right,,,,,2,31,121,33,right,1,0.767791640698,,,2018_Nov_02_1822,59.9803344175,Stroop,post,1006,
green,green,1,down,,,,,2,32,122,15,left,0,0.73428874777,,,2018_Nov_02_1822,59.9803344175,Stroop,post,1006,
blue,blue,1,right,,,,,2,33,123,30,right,1,0.667623943768,,,2018_Nov_02_1822,59.9803344175,Stroop,post,1006,
red,green,0,down,,,,,2,34,124,36,down,1,0.350907108674,,,2018_Nov_02_1822,59.9803344175,Stroop,post,1006,
green,red,0,left,,,,,2,35,125,39,left,1,0.45026426094,,,2018_Nov_02_1822,59.9803344175,Stroop,post,1006,
green,green,1,down,,,,,2,36,126,14,down,1,0.383930460228,,,2018_Nov_02_1822,59.9803344175,Stroop,post,1006,
green,green,1,down,,,,,2,37,127,19,down,1,0.300422692058,,,2018_Nov_02_1822,59.9803344175,Stroop,post,1006,
blue,blue,1,right,,,,,2,38,128,24,right,1,0.567550615564,,,2018_Nov_02_1822,59.9803344175,Stroop,post,1006,
green,blue,0,right,,,,,2,39,129,41,right,1,0.617827763108,,,2018_Nov_02_1822,59.9803344175,Stroop,post,1006,
blue,blue,1,right,,,,,2,40,130,35,right,1,0.400724671977,,,2018_Nov_02_1822,59.9803344175,Stroop,post,1006,
blue,blue,1,right,,,,,2,41,131,27,right,1,0.300417275121,,,2018_Nov_02_1822,59.9803344175,Stroop,post,1006,
red,red,1,left,,,,,2,42,132,7,left,1,0.534478226484,,,2018_Nov_02_1822,59.9803344175,Stroop,post,1006,
red,red,1,left,,,,,2,43,133,10,left,1,0.317718683126,,,2018_Nov_02_1822,59.9803344175,Stroop,post,1006,
red,red,1,left,,,,,2,44,134,4,left,1,0.317541349752,,,2018_Nov_02_1822,59.9803344175,Stroop,post,1006,
red,red,1,left,,,,,3,0,135,10,left,1,0.301088690066,,,2018_Nov_02_1822,59.9803344175,Stroop,post,1006,
green,green,1,down,,,,,3,1,136,17,down,1,0.684287008648,,,2018_Nov_02_1822,59.9803344175,Stroop,post,1006,
red,red,1,left,,,,,3,2,137,4,right,0,0.633668309044,,,2018_Nov_02_1822,59.9803344175,Stroop,post,1006,
red,blue,0,right,,,,,3,3,138,37,right,1,0.384456758311,,,2018_Nov_02_1822,59.9803344175,Stroop,post,1006,
blue,blue,1,right,,,,,3,4,139,33,right,1,0.334355803733,,,2018_Nov_02_1822,59.9803344175,Stroop,post,1006,
blue,green,0,down,,,,,3,5,140,42,down,1,0.835448884368,,,2018_Nov_02_1822,59.9803344175,Stroop,post,1006,
green,green,1,down,,,,,3,6,141,21,down,1,0.417371771149,,,2018_Nov_02_1822,59.9803344175,Stroop,post,1006,
blue,red,0,left,,,,,3,7,142,43,left,1,0.784416501925,,,2018_Nov_02_1822,59.9803344175,Stroop,post,1006,
green,green,1,down,,,,,3,8,143,19,down,1,2.53472712043,,,2018_Nov_02_1822,59.9803344175,Stroop,post,1006,
red,green,0,down,,,,,3,9,144,38,down,1,1.35122613768,,,2018_Nov_02_1822,59.9803344175,Stroop,post,1006,
blue,blue,1,right,,,,,3,10,145,29,right,1,0.567097018462,,,2018_Nov_02_1822,59.9803344175,Stroop,post,1006,
red,red,1,left,,,,,3,11,146,1,left,1,0.517769830404,,,2018_Nov_02_1822,59.9803344175,Stroop,post,1006,
blue,blue,1,right,,,,,3,12,147,30,right,1,0.600641251164,,,2018_Nov_02_1822,59.9803344175,Stroop,post,1006,
green,green,1,down,,,,,3,13,148,12,down,1,0.517602190495,,,2018_Nov_02_1822,59.9803344175,Stroop,post,1006,
green,green,1,down,,,,,3,14,149,20,down,1,0.433742321493,,,2018_Nov_02_1822,59.9803344175,Stroop,post,1006,
blue,blue,1,right,,,,,3,15,150,26,right,1,0.5313378292,,,2018_Nov_02_1822,59.9803344175,Stroop,post,1006,
blue,blue,1,right,,,,,3,16,151,28,down,0,0.467599596068,,,2018_Nov_02_1822,59.9803344175,Stroop,post,1006,
red,red,1,left,,,,,3,17,152,5,down,0,0.501108191034,,,2018_Nov_02_1822,59.9803344175,Stroop,post,1006,
green,blue,0,right,,,,,3,18,153,40,right,1,0.684030987154,,,2018_Nov_02_1822,59.9803344175,Stroop,post,1006,
green,green,1,down,,,,,3,19,154,23,down,1,0.701052425105,,,2018_Nov_02_1822,59.9803344175,Stroop,post,1006,
blue,blue,1,right,,,,,3,20,155,27,right,1,0.600776959663,,,2018_Nov_02_1822,59.9803344175,Stroop,post,1006,
red,red,1,left,,,,,3,21,156,3,left,1,0.400868363327,,,2018_Nov_02_1822,59.9803344175,Stroop,post,1006,
green,red,0,left,,,,,3,22,157,39,left,1,1.1507359335,,,2018_Nov_02_1822,59.9803344175,Stroop,post,1006,
blue,blue,1,right,,,,,3,23,158,34,right,1,0.46733103009,,,2018_Nov_02_1822,59.9803344175,Stroop,post,1006,
blue,blue,1,right,,,,,3,24,159,32,right,1,0.484422888208,,,2018_Nov_02_1822,59.9803344175,Stroop,post,1006,
blue,blue,1,right,,,,,3,25,160,35,right,1,0.351046523496,,,2018_Nov_02_1822,59.9803344175,Stroop,post,1006,
green,green,1,down,,,,,3,26,161,14,down,1,0.533857274574,,,2018_Nov_02_1822,59.9803344175,Stroop,post,1006,
green,green,1,down,,,,,3,27,162,13,down,1,0.43398950483,,,2018_Nov_02_1822,59.9803344175,Stroop,post,1006,
red,red,1,left,,,,,3,28,163,8,left,1,0.634228534251,,,2018_Nov_02_1822,59.9803344175,Stroop,post,1006,
red,red,1,left,,,,,3,29,164,9,left,1,0.417454735799,,,2018_Nov_02_1822,59.9803344175,Stroop,post,1006,
green,blue,0,right,,,,,3,30,165,41,right,1,0.551110215258,,,2018_Nov_02_1822,59.9803344175,Stroop,post,1006,
blue,red,0,left,,,,,3,31,166,44,left,1,0.684271613146,,,2018_Nov_02_1822,59.9803344175,Stroop,post,1006,
red,red,1,left,,,,,3,32,167,11,down,0,0.550999025521,,,2018_Nov_02_1822,59.9803344175,Stroop,post,1006,
green,green,1,down,,,,,3,33,168,22,left,0,0.634476002689,,,2018_Nov_02_1822,59.9803344175,Stroop,post,1006,
blue,blue,1,right,,,,,3,34,169,31,right,1,1.16587997553,,,2018_Nov_02_1822,59.9803344175,Stroop,post,1006,
red,red,1,left,,,,,3,35,170,2,left,1,0.834366637605,,,2018_Nov_02_1822,59.9803344175,Stroop,post,1006,
red,red,1,left,,,,,3,36,171,0,left,1,0.534281506182,,,2018_Nov_02_1822,59.9803344175,Stroop,post,1006,
blue,blue,1,right,,,,,3,37,172,24,down,0,0.517805753242,,,2018_Nov_02_1822,59.9803344175,Stroop,post,1006,
green,green,1,down,,,,,3,38,173,16,left,0,0.451063971732,,,2018_Nov_02_1822,59.9803344175,Stroop,post,1006,
red,green,0,down,,,,,3,39,174,36,down,1,0.550537730669,,,2018_Nov_02_1822,59.9803344175,Stroop,post,1006,
green,green,1,down,,,,,3,40,175,15,down,1,0.300824115514,,,2018_Nov_02_1822,59.9803344175,Stroop,post,1006,
blue,blue,1,right,,,,,3,41,176,25,right,1,0.567593665948,,,2018_Nov_02_1822,59.9803344175,Stroop,post,1006,
red,red,1,left,,,,,3,42,177,7,left,1,0.601027279118,,,2018_Nov_02_1822,59.9803344175,Stroop,post,1006,
red,red,1,left,,,,,3,43,178,6,left,1,0.534491626273,,,2018_Nov_02_1822,59.9803344175,Stroop,post,1006,
green,green,1,down,,,,,3,44,179,18,down,1,0.917246041218,,,2018_Nov_02_1822,59.9803344175,Stroop,post,1006,
,,,,,,,,,,,,,,,space,1.23075662049,2018_Nov_02_1822,59.9803344175,Stroop,post,1006,
