word,color,congruent,corrAns,practice.thisRepN,practice.thisTrialN,practice.thisN,practice.thisIndex,trials.thisRepN,trials.thisTrialN,trials.thisN,trials.thisIndex,resp_time.keys,resp_time.corr,resp_time.rt,key_resp_5.keys,key_resp_5.rt,date,frameRate,expName,Session,Participant,
green,green,1,down,0,0,0,3,,,,,down,1,6.46960266993,,,2018_Oct_19_1638,59.9399491772,Stroop,pre,1009,
red,red,1,left,0,1,1,1,,,,,left,1,1.60251939266,,,2018_Oct_19_1638,59.9399491772,Stroop,pre,1009,
blue,blue,1,right,0,2,2,5,,,,,right,1,1.90140076499,,,2018_Oct_19_1638,59.9399491772,Stroop,pre,1009,
blue,red,0,left,0,3,3,11,,,,,left,1,0.700966383009,,,2018_Oct_19_1638,59.9399491772,Stroop,pre,1009,
green,green,1,down,0,4,4,2,,,,,down,1,0.934678769454,,,2018_Oct_19_1638,59.9399491772,Stroop,pre,1009,
green,blue,0,right,0,5,5,9,,,,,right,1,1.91793043046,,,2018_Oct_19_1638,59.9399491772,Stroop,pre,1009,
red,green,0,down,0,6,6,7,,,,,down,1,2.71925712585,,,2018_Oct_19_1638,59.9399491772,Stroop,pre,1009,
red,red,1,left,0,7,7,0,,,,,left,1,1.23466861981,,,2018_Oct_19_1638,59.9399491772,Stroop,pre,1009,
blue,green,0,down,0,8,8,10,,,,,down,1,3.30086682526,,,2018_Oct_19_1638,59.9399491772,Stroop,pre,1009,
red,green,0,down,0,9,9,6,,,,,down,1,0.7355441692,,,2018_Oct_19_1638,59.9399491772,Stroop,pre,1009,
green,red,0,left,0,10,10,8,,,,,left,1,1.03404550006,,,2018_Oct_19_1638,59.9399491772,Stroop,pre,1009,
blue,blue,1,right,0,11,11,4,,,,,right,1,1.14851666937,,,2018_Oct_19_1638,59.9399491772,Stroop,pre,1009,
green,red,0,left,1,0,12,8,,,,,left,1,1.41539073851,,,2018_Oct_19_1638,59.9399491772,Stroop,pre,1009,
green,blue,0,right,1,1,13,9,,,,,right,1,1.48413205714,,,2018_Oct_19_1638,59.9399491772,Stroop,pre,1009,
blue,green,0,down,1,2,14,10,,,,,down,1,1.03525547454,,,2018_Oct_19_1638,59.9399491772,Stroop,pre,1009,
green,green,1,down,1,3,15,3,,,,,down,1,6.28609681164,,,2018_Oct_19_1638,59.9399491772,Stroop,pre,1009,
blue,red,0,left,1,4,16,11,,,,,left,1,0.898987088283,,,2018_Oct_19_1638,59.9399491772,Stroop,pre,1009,
green,green,1,down,1,5,17,2,,,,,down,1,0.685526663914,,,2018_Oct_19_1638,59.9399491772,Stroop,pre,1009,
red,green,0,down,1,6,18,7,,,,,down,1,0.951319909953,,,2018_Oct_19_1638,59.9399491772,Stroop,pre,1009,
red,red,1,left,1,7,19,0,,,,,left,1,0.817737188068,,,2018_Oct_19_1638,59.9399491772,Stroop,pre,1009,
red,green,0,down,1,8,20,6,,,,,down,1,0.501620521898,,,2018_Oct_19_1638,59.9399491772,Stroop,pre,1009,
blue,blue,1,right,1,9,21,4,,,,,right,1,0.467516860954,,,2018_Oct_19_1638,59.9399491772,Stroop,pre,1009,
red,red,1,left,1,10,22,1,,,,,left,1,0.500737559842,,,2018_Oct_19_1638,59.9399491772,Stroop,pre,1009,
blue,blue,1,right,1,11,23,5,,,,,right,1,1.11773730211,,,2018_Oct_19_1638,59.9399491772,Stroop,pre,1009,
red,red,1,left,,,,,0,0,0,6,left,1,0.834474122968,,,2018_Oct_19_1638,59.9399491772,Stroop,pre,1009,
blue,red,0,left,,,,,0,1,1,43,left,1,0.848910281704,,,2018_Oct_19_1638,59.9399491772,Stroop,pre,1009,
blue,blue,1,right,,,,,0,2,2,25,right,1,0.901840677951,,,2018_Oct_19_1638,59.9399491772,Stroop,pre,1009,
red,red,1,left,,,,,0,3,3,10,left,1,0.600565586092,,,2018_Oct_19_1638,59.9399491772,Stroop,pre,1009,
green,green,1,down,,,,,0,4,4,14,down,1,0.784202021261,,,2018_Oct_19_1638,59.9399491772,Stroop,pre,1009,
blue,blue,1,right,,,,,0,5,5,32,right,1,0.633663405857,,,2018_Oct_19_1638,59.9399491772,Stroop,pre,1009,
blue,blue,1,right,,,,,0,6,6,29,right,1,0.801212939541,,,2018_Oct_19_1638,59.9399491772,Stroop,pre,1009,
red,red,1,left,,,,,0,7,7,1,left,1,0.629627496641,,,2018_Oct_19_1638,59.9399491772,Stroop,pre,1009,
blue,green,0,down,,,,,0,8,8,42,down,1,0.483030706666,,,2018_Oct_19_1638,59.9399491772,Stroop,pre,1009,
green,green,1,down,,,,,0,9,9,12,down,1,0.665421814665,,,2018_Oct_19_1638,59.9399491772,Stroop,pre,1009,
green,red,0,left,,,,,0,10,10,39,left,1,0.735677026907,,,2018_Oct_19_1638,59.9399491772,Stroop,pre,1009,
green,green,1,down,,,,,0,11,11,22,down,1,0.65211808256,,,2018_Oct_19_1638,59.9399491772,Stroop,pre,1009,
green,green,1,down,,,,,0,12,12,23,down,1,0.666946257063,,,2018_Oct_19_1638,59.9399491772,Stroop,pre,1009,
green,green,1,down,,,,,0,13,13,13,down,1,0.718316858218,,,2018_Oct_19_1638,59.9399491772,Stroop,pre,1009,
red,blue,0,right,,,,,0,14,14,37,right,1,0.684650544317,,,2018_Oct_19_1638,59.9399491772,Stroop,pre,1009,
green,green,1,down,,,,,0,15,15,19,down,1,0.801062120387,,,2018_Oct_19_1638,59.9399491772,Stroop,pre,1009,
green,green,1,down,,,,,0,16,16,20,down,1,0.684453538577,,,2018_Oct_19_1638,59.9399491772,Stroop,pre,1009,
red,red,1,left,,,,,0,17,17,9,left,1,0.500632071964,,,2018_Oct_19_1638,59.9399491772,Stroop,pre,1009,
green,blue,0,right,,,,,0,18,18,41,right,1,0.899294143541,,,2018_Oct_19_1638,59.9399491772,Stroop,pre,1009,
blue,blue,1,right,,,,,0,19,19,24,right,1,0.835376471983,,,2018_Oct_19_1638,59.9399491772,Stroop,pre,1009,
green,blue,0,right,,,,,0,20,20,40,right,1,0.717814222731,,,2018_Oct_19_1638,59.9399491772,Stroop,pre,1009,
blue,blue,1,right,,,,,0,21,21,31,right,1,0.614596899455,,,2018_Oct_19_1638,59.9399491772,Stroop,pre,1009,
blue,blue,1,right,,,,,0,22,22,35,right,1,0.584292797857,,,2018_Oct_19_1638,59.9399491772,Stroop,pre,1009,
blue,blue,1,right,,,,,0,23,23,30,right,1,0.584191016309,,,2018_Oct_19_1638,59.9399491772,Stroop,pre,1009,
green,green,1,down,,,,,0,24,24,16,down,1,1.41446871743,,,2018_Oct_19_1638,59.9399491772,Stroop,pre,1009,
red,red,1,left,,,,,0,25,25,0,left,1,0.484423716869,,,2018_Oct_19_1638,59.9399491772,Stroop,pre,1009,
blue,blue,1,right,,,,,0,26,26,33,right,1,0.732703979345,,,2018_Oct_19_1638,59.9399491772,Stroop,pre,1009,
red,red,1,left,,,,,0,27,27,2,left,1,0.668691938901,,,2018_Oct_19_1638,59.9399491772,Stroop,pre,1009,
red,red,1,left,,,,,0,28,28,3,left,1,1.00195266616,,,2018_Oct_19_1638,59.9399491772,Stroop,pre,1009,
blue,red,0,left,,,,,0,29,29,44,left,1,0.667692369976,,,2018_Oct_19_1638,59.9399491772,Stroop,pre,1009,
blue,blue,1,right,,,,,0,30,30,26,right,1,0.786339718867,,,2018_Oct_19_1638,59.9399491772,Stroop,pre,1009,
red,red,1,left,,,,,0,31,31,7,left,1,0.682555612069,,,2018_Oct_19_1638,59.9399491772,Stroop,pre,1009,
green,green,1,down,,,,,0,32,32,15,down,1,0.547261990836,,,2018_Oct_19_1638,59.9399491772,Stroop,pre,1009,
red,green,0,down,,,,,0,33,33,38,down,1,0.750179614495,,,2018_Oct_19_1638,59.9399491772,Stroop,pre,1009,
red,red,1,left,,,,,0,34,34,8,left,1,0.75184546767,,,2018_Oct_19_1638,59.9399491772,Stroop,pre,1009,
red,red,1,left,,,,,0,35,35,5,left,1,0.76723643426,,,2018_Oct_19_1638,59.9399491772,Stroop,pre,1009,
blue,blue,1,right,,,,,0,36,36,34,right,1,0.830447051927,,,2018_Oct_19_1638,59.9399491772,Stroop,pre,1009,
red,green,0,down,,,,,0,37,37,36,down,1,0.716734825141,,,2018_Oct_19_1638,59.9399491772,Stroop,pre,1009,
red,red,1,left,,,,,0,38,38,4,left,1,0.651868617982,,,2018_Oct_19_1638,59.9399491772,Stroop,pre,1009,
red,red,1,left,,,,,0,39,39,11,left,1,0.533936876054,,,2018_Oct_19_1638,59.9399491772,Stroop,pre,1009,
green,green,1,down,,,,,0,40,40,21,down,1,0.867939154592,,,2018_Oct_19_1638,59.9399491772,Stroop,pre,1009,
green,green,1,down,,,,,0,41,41,17,down,1,0.667747394735,,,2018_Oct_19_1638,59.9399491772,Stroop,pre,1009,
blue,blue,1,right,,,,,0,42,42,27,right,1,0.732544607117,,,2018_Oct_19_1638,59.9399491772,Stroop,pre,1009,
blue,blue,1,right,,,,,0,43,43,28,right,1,0.618212852871,,,2018_Oct_19_1638,59.9399491772,Stroop,pre,1009,
green,green,1,down,,,,,0,44,44,18,down,1,0.714928131394,,,2018_Oct_19_1638,59.9399491772,Stroop,pre,1009,
green,blue,0,right,,,,,1,0,45,41,right,1,1.0678723266,,,2018_Oct_19_1638,59.9399491772,Stroop,pre,1009,
blue,blue,1,right,,,,,1,1,46,33,right,1,1.29940596069,,,2018_Oct_19_1638,59.9399491772,Stroop,pre,1009,
green,green,1,down,,,,,1,2,47,17,down,1,0.70087771617,,,2018_Oct_19_1638,59.9399491772,Stroop,pre,1009,
green,red,0,left,,,,,1,3,48,39,left,1,0.599843421774,,,2018_Oct_19_1638,59.9399491772,Stroop,pre,1009,
blue,blue,1,right,,,,,1,4,49,24,right,1,1.15250781751,,,2018_Oct_19_1638,59.9399491772,Stroop,pre,1009,
blue,red,0,left,,,,,1,5,50,43,left,1,0.767386968313,,,2018_Oct_19_1638,59.9399491772,Stroop,pre,1009,
red,green,0,down,,,,,1,6,51,36,down,1,0.698448643938,,,2018_Oct_19_1638,59.9399491772,Stroop,pre,1009,
red,red,1,left,,,,,1,7,52,8,left,1,0.684455819395,,,2018_Oct_19_1638,59.9399491772,Stroop,pre,1009,
blue,blue,1,right,,,,,1,8,53,34,right,1,0.667669846889,,,2018_Oct_19_1638,59.9399491772,Stroop,pre,1009,
green,green,1,down,,,,,1,9,54,19,down,1,0.914188461793,,,2018_Oct_19_1638,59.9399491772,Stroop,pre,1009,
red,red,1,left,,,,,1,10,55,3,left,1,0.782653345164,,,2018_Oct_19_1638,59.9399491772,Stroop,pre,1009,
green,green,1,down,,,,,1,11,56,16,down,1,0.548245594027,,,2018_Oct_19_1638,59.9399491772,Stroop,pre,1009,
blue,blue,1,right,,,,,1,12,57,35,right,1,0.450519627588,,,2018_Oct_19_1638,59.9399491772,Stroop,pre,1009,
green,green,1,down,,,,,1,13,58,18,down,1,0.832483253087,,,2018_Oct_19_1638,59.9399491772,Stroop,pre,1009,
red,red,1,left,,,,,1,14,59,0,left,1,0.58197092412,,,2018_Oct_19_1638,59.9399491772,Stroop,pre,1009,
red,red,1,left,,,,,1,15,60,7,left,1,0.784430673368,,,2018_Oct_19_1638,59.9399491772,Stroop,pre,1009,
blue,blue,1,right,,,,,1,16,61,28,right,1,0.667717173883,,,2018_Oct_19_1638,59.9399491772,Stroop,pre,1009,
green,green,1,down,,,,,1,17,62,22,down,1,0.618639936227,,,2018_Oct_19_1638,59.9399491772,Stroop,pre,1009,
blue,red,0,left,,,,,1,18,63,44,left,1,0.833869135729,,,2018_Oct_19_1638,59.9399491772,Stroop,pre,1009,
red,blue,0,right,,,,,1,19,64,37,right,1,0.76743458041,,,2018_Oct_19_1638,59.9399491772,Stroop,pre,1009,
blue,blue,1,right,,,,,1,20,65,25,right,1,0.731277041959,,,2018_Oct_19_1638,59.9399491772,Stroop,pre,1009,
blue,blue,1,right,,,,,1,21,66,30,right,1,0.702150128067,,,2018_Oct_19_1638,59.9399491772,Stroop,pre,1009,
blue,blue,1,right,,,,,1,22,67,32,right,1,0.701724470222,,,2018_Oct_19_1638,59.9399491772,Stroop,pre,1009,
red,red,1,left,,,,,1,23,68,10,left,1,0.748423954074,,,2018_Oct_19_1638,59.9399491772,Stroop,pre,1009,
green,blue,0,right,,,,,1,24,69,40,right,1,0.951184486326,,,2018_Oct_19_1638,59.9399491772,Stroop,pre,1009,
blue,blue,1,right,,,,,1,25,70,29,right,1,0.68435432295,,,2018_Oct_19_1638,59.9399491772,Stroop,pre,1009,
red,red,1,left,,,,,1,26,71,5,left,1,0.63445285433,,,2018_Oct_19_1638,59.9399491772,Stroop,pre,1009,
red,green,0,down,,,,,1,27,72,38,down,1,0.567259641592,,,2018_Oct_19_1638,59.9399491772,Stroop,pre,1009,
red,red,1,left,,,,,1,28,73,11,left,1,0.767723959319,,,2018_Oct_19_1638,59.9399491772,Stroop,pre,1009,
green,green,1,down,,,,,1,29,74,23,down,1,0.569401045526,,,2018_Oct_19_1638,59.9399491772,Stroop,pre,1009,
green,green,1,down,,,,,1,30,75,21,down,1,0.583639628318,,,2018_Oct_19_1638,59.9399491772,Stroop,pre,1009,
red,red,1,left,,,,,1,31,76,1,left,1,0.731062644974,,,2018_Oct_19_1638,59.9399491772,Stroop,pre,1009,
green,green,1,down,,,,,1,32,77,14,down,1,0.650983660213,,,2018_Oct_19_1638,59.9399491772,Stroop,pre,1009,
green,green,1,down,,,,,1,33,78,15,down,1,0.601869929455,,,2018_Oct_19_1638,59.9399491772,Stroop,pre,1009,
red,red,1,left,,,,,1,34,79,6,left,1,0.684072926906,,,2018_Oct_19_1638,59.9399491772,Stroop,pre,1009,
blue,blue,1,right,,,,,1,35,80,31,right,1,0.650848236584,,,2018_Oct_19_1638,59.9399491772,Stroop,pre,1009,
green,green,1,down,,,,,1,36,81,12,down,1,0.752294218808,,,2018_Oct_19_1638,59.9399491772,Stroop,pre,1009,
blue,blue,1,right,,,,,1,37,82,27,right,1,0.817874892515,,,2018_Oct_19_1638,59.9399491772,Stroop,pre,1009,
red,red,1,left,,,,,1,38,83,2,left,1,0.602226592524,,,2018_Oct_19_1638,59.9399491772,Stroop,pre,1009,
green,green,1,down,,,,,1,39,84,13,down,1,0.515700872869,,,2018_Oct_19_1638,59.9399491772,Stroop,pre,1009,
blue,green,0,down,,,,,1,40,85,42,down,1,1.55131101476,,,2018_Oct_19_1638,59.9399491772,Stroop,pre,1009,
red,red,1,left,,,,,1,41,86,4,left,1,0.582838205542,,,2018_Oct_19_1638,59.9399491772,Stroop,pre,1009,
green,green,1,down,,,,,1,42,87,20,down,1,0.634412939999,,,2018_Oct_19_1638,59.9399491772,Stroop,pre,1009,
blue,blue,1,right,,,,,1,43,88,26,right,1,0.448453205578,,,2018_Oct_19_1638,59.9399491772,Stroop,pre,1009,
red,red,1,left,,,,,1,44,89,9,left,1,0.468856842115,,,2018_Oct_19_1638,59.9399491772,Stroop,pre,1009,
blue,blue,1,right,,,,,2,0,90,32,right,1,1.1675988564,,,2018_Oct_19_1638,59.9399491772,Stroop,pre,1009,
blue,blue,1,right,,,,,2,1,91,33,right,1,0.684370288684,,,2018_Oct_19_1638,59.9399491772,Stroop,pre,1009,
red,red,1,left,,,,,2,2,92,1,left,1,0.467448721487,,,2018_Oct_19_1638,59.9399491772,Stroop,pre,1009,
green,green,1,down,,,,,2,3,93,22,down,1,0.467554209365,,,2018_Oct_19_1638,59.9399491772,Stroop,pre,1009,
blue,red,0,left,,,,,2,4,94,43,left,1,0.865108373115,,,2018_Oct_19_1638,59.9399491772,Stroop,pre,1009,
blue,blue,1,right,,,,,2,5,95,29,right,1,0.769563439839,,,2018_Oct_19_1638,59.9399491772,Stroop,pre,1009,
green,green,1,down,,,,,2,6,96,20,down,1,0.91850206072,,,2018_Oct_19_1638,59.9399491772,Stroop,pre,1009,
red,red,1,left,,,,,2,7,97,0,left,1,0.598391965586,,,2018_Oct_19_1638,59.9399491772,Stroop,pre,1009,
red,red,1,left,,,,,2,8,98,11,left,1,0.735149872617,,,2018_Oct_19_1638,59.9399491772,Stroop,pre,1009,
red,red,1,left,,,,,2,9,99,2,left,1,0.602053535384,,,2018_Oct_19_1638,59.9399491772,Stroop,pre,1009,
blue,blue,1,right,,,,,2,10,100,31,right,1,0.733436692448,,,2018_Oct_19_1638,59.9399491772,Stroop,pre,1009,
red,red,1,left,,,,,2,11,101,9,left,1,0.884867678285,,,2018_Oct_19_1638,59.9399491772,Stroop,pre,1009,
green,green,1,down,,,,,2,12,102,21,down,1,0.634016647697,,,2018_Oct_19_1638,59.9399491772,Stroop,pre,1009,
red,blue,0,right,,,,,2,13,103,37,right,1,0.63410674005,,,2018_Oct_19_1638,59.9399491772,Stroop,pre,1009,
red,green,0,down,,,,,2,14,104,38,down,1,0.818985366266,,,2018_Oct_19_1638,59.9399491772,Stroop,pre,1009,
blue,red,0,left,,,,,2,15,105,44,left,1,0.698532464037,,,2018_Oct_19_1638,59.9399491772,Stroop,pre,1009,
blue,blue,1,right,,,,,2,16,106,24,right,1,0.751602560447,,,2018_Oct_19_1638,59.9399491772,Stroop,pre,1009,
blue,blue,1,right,,,,,2,17,107,26,right,1,0.851935217897,,,2018_Oct_19_1638,59.9399491772,Stroop,pre,1009,
green,green,1,down,,,,,2,18,108,18,down,1,0.63374180901,,,2018_Oct_19_1638,59.9399491772,Stroop,pre,1009,
green,green,1,down,,,,,2,19,109,23,down,1,0.684277915514,,,2018_Oct_19_1638,59.9399491772,Stroop,pre,1009,
red,red,1,left,,,,,2,20,110,10,left,1,0.565933345346,,,2018_Oct_19_1638,59.9399491772,Stroop,pre,1009,
green,green,1,down,,,,,2,21,111,13,down,1,0.617488407737,,,2018_Oct_19_1638,59.9399491772,Stroop,pre,1009,
red,red,1,left,,,,,2,22,112,4,left,1,0.747625667425,,,2018_Oct_19_1638,59.9399491772,Stroop,pre,1009,
blue,blue,1,right,,,,,2,23,113,30,right,1,0.682882624493,,,2018_Oct_19_1638,59.9399491772,Stroop,pre,1009,
red,red,1,left,,,,,2,24,114,6,left,1,0.76893792523,,,2018_Oct_19_1638,59.9399491772,Stroop,pre,1009,
green,blue,0,right,,,,,2,25,115,40,down,0,0.815613745584,,,2018_Oct_19_1638,59.9399491772,Stroop,pre,1009,
green,green,1,down,,,,,2,26,116,16,down,1,1.20120444349,,,2018_Oct_19_1638,59.9399491772,Stroop,pre,1009,
blue,blue,1,right,,,,,2,27,117,35,right,1,0.63168394007,,,2018_Oct_19_1638,59.9399491772,Stroop,pre,1009,
green,green,1,down,,,,,2,28,118,17,down,1,0.898688015894,,,2018_Oct_19_1638,59.9399491772,Stroop,pre,1009,
blue,blue,1,right,,,,,2,29,119,25,right,1,0.85216957205,,,2018_Oct_19_1638,59.9399491772,Stroop,pre,1009,
red,green,0,down,,,,,2,30,120,36,left,0,0.983062353031,,,2018_Oct_19_1638,59.9399491772,Stroop,pre,1009,
blue,blue,1,right,,,,,2,31,121,28,right,1,0.982417736561,,,2018_Oct_19_1638,59.9399491772,Stroop,pre,1009,
red,red,1,left,,,,,2,32,122,3,left,1,0.750606127649,,,2018_Oct_19_1638,59.9399491772,Stroop,pre,1009,
red,red,1,left,,,,,2,33,123,5,left,1,0.717488065613,,,2018_Oct_19_1638,59.9399491772,Stroop,pre,1009,
green,green,1,down,,,,,2,34,124,15,down,1,0.848540789026,,,2018_Oct_19_1638,59.9399491772,Stroop,pre,1009,
blue,green,0,down,,,,,2,35,125,42,right,0,0.69755285228,,,2018_Oct_19_1638,59.9399491772,Stroop,pre,1009,
green,red,0,left,,,,,2,36,126,39,down,0,1.31459165357,,,2018_Oct_19_1638,59.9399491772,Stroop,pre,1009,
green,green,1,down,,,,,2,37,127,19,down,1,0.984601335647,,,2018_Oct_19_1638,59.9399491772,Stroop,pre,1009,
blue,blue,1,right,,,,,2,38,128,27,right,1,0.765786403583,,,2018_Oct_19_1638,59.9399491772,Stroop,pre,1009,
green,blue,0,right,,,,,2,39,129,41,down,0,0.998364082576,,,2018_Oct_19_1638,59.9399491772,Stroop,pre,1009,
green,green,1,down,,,,,2,40,130,14,down,1,0.73433989677,,,2018_Oct_19_1638,59.9399491772,Stroop,pre,1009,
red,red,1,left,,,,,2,41,131,8,left,1,0.48280290987,,,2018_Oct_19_1638,59.9399491772,Stroop,pre,1009,
blue,blue,1,right,,,,,2,42,132,34,right,1,0.685363015153,,,2018_Oct_19_1638,59.9399491772,Stroop,pre,1009,
red,red,1,left,,,,,2,43,133,7,left,1,0.802724267231,,,2018_Oct_19_1638,59.9399491772,Stroop,pre,1009,
green,green,1,down,,,,,2,44,134,12,down,1,0.632239034392,,,2018_Oct_19_1638,59.9399491772,Stroop,pre,1009,
blue,red,0,left,,,,,3,0,135,44,right,0,0.784010147363,,,2018_Oct_19_1638,59.9399491772,Stroop,pre,1009,
blue,blue,1,right,,,,,3,1,136,28,right,1,0.93355831712,,,2018_Oct_19_1638,59.9399491772,Stroop,pre,1009,
blue,blue,1,right,,,,,3,2,137,27,right,1,0.650544602555,,,2018_Oct_19_1638,59.9399491772,Stroop,pre,1009,
red,red,1,left,,,,,3,3,138,3,left,1,0.60093165754,,,2018_Oct_19_1638,59.9399491772,Stroop,pre,1009,
green,green,1,down,,,,,3,4,139,17,down,1,0.56612350863,,,2018_Oct_19_1638,59.9399491772,Stroop,pre,1009,
green,green,1,down,,,,,3,5,140,14,down,1,1.13398728215,,,2018_Oct_19_1638,59.9399491772,Stroop,pre,1009,
red,red,1,left,,,,,3,6,141,4,left,1,0.616780498542,,,2018_Oct_19_1638,59.9399491772,Stroop,pre,1009,
green,blue,0,right,,,,,3,7,142,41,down,0,0.868267592528,,,2018_Oct_19_1638,59.9399491772,Stroop,pre,1009,
green,green,1,down,,,,,3,8,143,23,down,1,0.834014823042,,,2018_Oct_19_1638,59.9399491772,Stroop,pre,1009,
green,green,1,down,,,,,3,9,144,18,down,1,0.534278998903,,,2018_Oct_19_1638,59.9399491772,Stroop,pre,1009,
blue,green,0,down,,,,,3,10,145,42,right,0,0.983381097483,,,2018_Oct_19_1638,59.9399491772,Stroop,pre,1009,
green,green,1,down,,,,,3,11,146,20,down,1,1.40144353034,,,2018_Oct_19_1638,59.9399491772,Stroop,pre,1009,
blue,red,0,left,,,,,3,12,147,43,right,0,0.898657224836,,,2018_Oct_19_1638,59.9399491772,Stroop,pre,1009,
blue,blue,1,right,,,,,3,13,148,30,right,1,0.751745396738,,,2018_Oct_19_1638,59.9399491772,Stroop,pre,1009,
green,green,1,down,,,,,3,14,149,15,down,1,0.683871074427,,,2018_Oct_19_1638,59.9399491772,Stroop,pre,1009,
red,red,1,left,,,,,3,15,150,5,left,1,0.7147847249,,,2018_Oct_19_1638,59.9399491772,Stroop,pre,1009,
red,red,1,left,,,,,3,16,151,1,left,1,0.616956406708,,,2018_Oct_19_1638,59.9399491772,Stroop,pre,1009,
blue,blue,1,right,,,,,3,17,152,34,right,1,0.683960311469,,,2018_Oct_19_1638,59.9399491772,Stroop,pre,1009,
red,red,1,left,,,,,3,18,153,10,left,1,0.748970495326,,,2018_Oct_19_1638,59.9399491772,Stroop,pre,1009,
blue,blue,1,right,,,,,3,19,154,32,right,1,1.1023674331,,,2018_Oct_19_1638,59.9399491772,Stroop,pre,1009,
green,green,1,down,,,,,3,20,155,12,down,1,0.715892632727,,,2018_Oct_19_1638,59.9399491772,Stroop,pre,1009,
red,red,1,left,,,,,3,21,156,6,left,1,0.732886444865,,,2018_Oct_19_1638,59.9399491772,Stroop,pre,1009,
green,red,0,left,,,,,3,22,157,39,down,0,0.632128984875,,,2018_Oct_19_1638,59.9399491772,Stroop,pre,1009,
red,red,1,left,,,,,3,23,158,7,down,0,0.78573986347,,,2018_Oct_19_1638,59.9399491772,Stroop,pre,1009,
blue,blue,1,right,,,,,3,24,159,31,right,1,0.669065708114,,,2018_Oct_19_1638,59.9399491772,Stroop,pre,1009,
blue,blue,1,right,,,,,3,25,160,29,right,1,0.701253195997,,,2018_Oct_19_1638,59.9399491772,Stroop,pre,1009,
blue,blue,1,right,,,,,3,26,161,35,right,1,0.668173907887,,,2018_Oct_19_1638,59.9399491772,Stroop,pre,1009,
red,red,1,left,,,,,3,27,162,11,left,1,0.666020814753,,,2018_Oct_19_1638,59.9399491772,Stroop,pre,1009,
blue,blue,1,right,,,,,3,28,163,25,right,1,0.7678297323,,,2018_Oct_19_1638,59.9399491772,Stroop,pre,1009,
green,green,1,down,,,,,3,29,164,16,down,1,0.482845960329,,,2018_Oct_19_1638,59.9399491772,Stroop,pre,1009,
green,green,1,down,,,,,3,30,165,21,down,1,1.01854590946,,,2018_Oct_19_1638,59.9399491772,Stroop,pre,1009,
green,green,1,down,,,,,3,31,166,22,down,1,0.68554662108,,,2018_Oct_19_1638,59.9399491772,Stroop,pre,1009,
red,green,0,down,,,,,3,32,167,36,left,0,0.701833094226,,,2018_Oct_19_1638,59.9399491772,Stroop,pre,1009,
red,red,1,left,,,,,3,33,168,9,left,1,0.71873139707,,,2018_Oct_19_1638,59.9399491772,Stroop,pre,1009,
red,red,1,left,,,,,3,34,169,8,left,1,0.783923761344,,,2018_Oct_19_1638,59.9399491772,Stroop,pre,1009,
green,green,1,down,,,,,3,35,170,13,down,1,0.650665771065,,,2018_Oct_19_1638,59.9399491772,Stroop,pre,1009,
blue,blue,1,right,,,,,3,36,171,26,right,1,0.517380696061,,,2018_Oct_19_1638,59.9399491772,Stroop,pre,1009,
red,red,1,left,,,,,3,37,172,2,left,1,0.717043020808,,,2018_Oct_19_1638,59.9399491772,Stroop,pre,1009,
red,green,0,down,,,,,3,38,173,38,left,0,0.801830186183,,,2018_Oct_19_1638,59.9399491772,Stroop,pre,1009,
blue,blue,1,right,,,,,3,39,174,33,right,1,0.918913463447,,,2018_Oct_19_1638,59.9399491772,Stroop,pre,1009,
green,green,1,down,,,,,3,40,175,19,down,1,0.715516867798,,,2018_Oct_19_1638,59.9399491772,Stroop,pre,1009,
red,blue,0,right,,,,,3,41,176,37,left,0,0.645992372942,,,2018_Oct_19_1638,59.9399491772,Stroop,pre,1009,
blue,blue,1,right,,,,,3,42,177,24,right,1,1.14832935711,,,2018_Oct_19_1638,59.9399491772,Stroop,pre,1009,
green,blue,0,right,,,,,3,43,178,40,down,0,0.634615077583,,,2018_Oct_19_1638,59.9399491772,Stroop,pre,1009,
red,red,1,left,,,,,3,44,179,0,left,1,0.566752444469,,,2018_Oct_19_1638,59.9399491772,Stroop,pre,1009,
,,,,,,,,,,,,,,,space,14.2720002098,2018_Oct_19_1638,59.9399491772,Stroop,pre,1009,
