word,color,congruent,corrAns,practice.thisRepN,practice.thisTrialN,practice.thisN,practice.thisIndex,trials.thisRepN,trials.thisTrialN,trials.thisN,trials.thisIndex,resp_time.keys,resp_time.corr,resp_time.rt,key_resp_5.keys,key_resp_5.rt,date,frameRate,expName,Session,Participant,
green,green,1,down,0,0,0,3,,,,,down,1,3.18521581779,,,2018_Sep_25_1112,60.0027199945,Stroop,pre,1009,
red,red,1,left,0,1,1,0,,,,,left,1,1.35382588091,,,2018_Sep_25_1112,60.0027199945,Stroop,pre,1009,
green,green,1,down,0,2,2,2,,,,,down,1,1.10109824067,,,2018_Sep_25_1112,60.0027199945,Stroop,pre,1009,
green,red,0,left,0,3,3,8,,,,,left,1,0.884395494366,,,2018_Sep_25_1112,60.0027199945,Stroop,pre,1009,
red,red,1,left,0,4,4,1,,,,,left,1,1.41782439382,,,2018_Sep_25_1112,60.0027199945,Stroop,pre,1009,
blue,blue,1,right,0,5,5,4,,,,,right,1,0.951244455126,,,2018_Sep_25_1112,60.0027199945,Stroop,pre,1009,
green,blue,0,right,0,6,6,9,,,,,right,1,1.28468270592,,,2018_Sep_25_1112,60.0027199945,Stroop,pre,1009,
blue,blue,1,right,0,7,7,5,,,,,right,1,1.26590903713,,,2018_Sep_25_1112,60.0027199945,Stroop,pre,1009,
red,green,0,down,0,8,8,6,,,,,down,1,1.40076532729,,,2018_Sep_25_1112,60.0027199945,Stroop,pre,1009,
blue,green,0,down,0,9,9,10,,,,,down,1,1.35040636986,,,2018_Sep_25_1112,60.0027199945,Stroop,pre,1009,
blue,red,0,left,0,10,10,11,,,,,left,1,1.06781117935,,,2018_Sep_25_1112,60.0027199945,Stroop,pre,1009,
red,green,0,down,0,11,11,7,,,,,down,1,1.06777354592,,,2018_Sep_25_1112,60.0027199945,Stroop,pre,1009,
green,green,1,down,1,0,12,3,,,,,down,1,0.933947898786,,,2018_Sep_25_1112,60.0027199945,Stroop,pre,1009,
red,green,0,down,1,1,13,7,,,,,down,1,0.784200741322,,,2018_Sep_25_1112,60.0027199945,Stroop,pre,1009,
blue,red,0,left,1,2,14,11,,,,,left,1,1.10128811847,,,2018_Sep_25_1112,60.0027199945,Stroop,pre,1009,
green,green,1,down,1,3,15,2,,,,,down,1,0.651283713645,,,2018_Sep_25_1112,60.0027199945,Stroop,pre,1009,
blue,blue,1,right,1,4,16,5,,,,,right,1,0.8507366603,,,2018_Sep_25_1112,60.0027199945,Stroop,pre,1009,
green,blue,0,right,1,5,17,9,,,,,right,1,1.01778351022,,,2018_Sep_25_1112,60.0027199945,Stroop,pre,1009,
red,red,1,left,1,6,18,1,,,,,left,1,0.767657423951,,,2018_Sep_25_1112,60.0027199945,Stroop,pre,1009,
green,red,0,left,1,7,19,8,,,,,left,1,0.68420356383,,,2018_Sep_25_1112,60.0027199945,Stroop,pre,1009,
red,green,0,down,1,8,20,6,,,,,down,1,1.09975712177,,,2018_Sep_25_1112,60.0027199945,Stroop,pre,1009,
blue,blue,1,right,1,9,21,4,,,,,right,1,0.650978084509,,,2018_Sep_25_1112,60.0027199945,Stroop,pre,1009,
red,red,1,left,1,10,22,0,,,,,left,1,1.68220385976,,,2018_Sep_25_1112,60.0027199945,Stroop,pre,1009,
blue,green,0,down,1,11,23,10,,,,,down,1,0.833735754532,,,2018_Sep_25_1112,60.0027199945,Stroop,pre,1009,
blue,blue,1,right,,,,,0,0,0,33,right,1,1.38450169479,,,2018_Sep_25_1112,60.0027199945,Stroop,pre,1009,
red,green,0,down,,,,,0,1,1,36,down,1,2.45170076057,,,2018_Sep_25_1112,60.0027199945,Stroop,pre,1009,
blue,blue,1,right,,,,,0,2,2,30,right,1,0.900994121485,,,2018_Sep_25_1112,60.0027199945,Stroop,pre,1009,
green,green,1,down,,,,,0,3,3,14,down,1,0.667932233582,,,2018_Sep_25_1112,60.0027199945,Stroop,pre,1009,
blue,blue,1,right,,,,,0,4,4,25,right,1,0.785497384333,,,2018_Sep_25_1112,60.0027199945,Stroop,pre,1009,
red,green,0,down,,,,,0,5,5,38,down,1,0.850839582052,,,2018_Sep_25_1112,60.0027199945,Stroop,pre,1009,
red,red,1,left,,,,,0,6,6,9,left,1,0.967345294494,,,2018_Sep_25_1112,60.0027199945,Stroop,pre,1009,
red,red,1,left,,,,,0,7,7,4,left,1,0.567589512701,,,2018_Sep_25_1112,60.0027199945,Stroop,pre,1009,
green,green,1,down,,,,,0,8,8,13,down,1,0.884022581204,,,2018_Sep_25_1112,60.0027199945,Stroop,pre,1009,
green,green,1,down,,,,,0,9,9,17,down,1,0.683487958298,,,2018_Sep_25_1112,60.0027199945,Stroop,pre,1009,
red,red,1,left,,,,,0,10,10,0,left,1,0.719199810464,,,2018_Sep_25_1112,60.0027199945,Stroop,pre,1009,
blue,blue,1,right,,,,,0,11,11,29,right,1,0.78480829327,,,2018_Sep_25_1112,60.0027199945,Stroop,pre,1009,
green,green,1,down,,,,,0,12,12,19,down,1,0.665787412698,,,2018_Sep_25_1112,60.0027199945,Stroop,pre,1009,
red,red,1,left,,,,,0,13,13,5,left,1,0.617778834556,,,2018_Sep_25_1112,60.0027199945,Stroop,pre,1009,
green,green,1,down,,,,,0,14,14,23,down,1,0.58449262855,,,2018_Sep_25_1112,60.0027199945,Stroop,pre,1009,
red,red,1,left,,,,,0,15,15,11,left,1,0.800531657847,,,2018_Sep_25_1112,60.0027199945,Stroop,pre,1009,
green,green,1,down,,,,,0,16,16,21,down,1,0.60096638108,,,2018_Sep_25_1112,60.0027199945,Stroop,pre,1009,
red,red,1,left,,,,,0,17,17,6,left,1,0.717751208191,,,2018_Sep_25_1112,60.0027199945,Stroop,pre,1009,
green,blue,0,right,,,,,0,18,18,41,right,1,0.866806993776,,,2018_Sep_25_1112,60.0027199945,Stroop,pre,1009,
green,green,1,down,,,,,0,19,19,20,down,1,0.551169929514,,,2018_Sep_25_1112,60.0027199945,Stroop,pre,1009,
green,green,1,down,,,,,0,20,20,22,down,1,0.818792143392,,,2018_Sep_25_1112,60.0027199945,Stroop,pre,1009,
blue,blue,1,right,,,,,0,21,21,35,right,1,0.813758100811,,,2018_Sep_25_1112,60.0027199945,Stroop,pre,1009,
blue,blue,1,right,,,,,0,22,22,31,right,1,0.601051911622,,,2018_Sep_25_1112,60.0027199945,Stroop,pre,1009,
red,red,1,left,,,,,0,23,23,2,left,1,1.03416545997,,,2018_Sep_25_1112,60.0027199945,Stroop,pre,1009,
green,red,0,left,,,,,0,24,24,39,left,1,1.58459013337,,,2018_Sep_25_1112,60.0027199945,Stroop,pre,1009,
blue,red,0,left,,,,,0,25,25,43,left,1,0.682256033396,,,2018_Sep_25_1112,60.0027199945,Stroop,pre,1009,
blue,blue,1,right,,,,,0,26,26,24,right,1,0.917649768968,,,2018_Sep_25_1112,60.0027199945,Stroop,pre,1009,
red,red,1,left,,,,,0,27,27,1,left,1,0.616597657775,,,2018_Sep_25_1112,60.0027199945,Stroop,pre,1009,
red,red,1,left,,,,,0,28,28,8,left,1,0.667809924907,,,2018_Sep_25_1112,60.0027199945,Stroop,pre,1009,
red,red,1,left,,,,,0,29,29,7,left,1,0.601103800151,,,2018_Sep_25_1112,60.0027199945,Stroop,pre,1009,
blue,blue,1,right,,,,,0,30,30,32,right,1,0.702358276605,,,2018_Sep_25_1112,60.0027199945,Stroop,pre,1009,
red,red,1,left,,,,,0,31,31,3,left,1,0.818731701809,,,2018_Sep_25_1112,60.0027199945,Stroop,pre,1009,
blue,red,0,left,,,,,0,32,32,44,right,0,0.666140938937,,,2018_Sep_25_1112,60.0027199945,Stroop,pre,1009,
blue,blue,1,right,,,,,0,33,33,27,right,1,1.284472871,,,2018_Sep_25_1112,60.0027199945,Stroop,pre,1009,
green,green,1,down,,,,,0,34,34,15,down,1,0.801117542058,,,2018_Sep_25_1112,60.0027199945,Stroop,pre,1009,
red,red,1,left,,,,,0,35,35,10,left,1,0.617177839948,,,2018_Sep_25_1112,60.0027199945,Stroop,pre,1009,
green,green,1,down,,,,,0,36,36,12,down,1,0.902328112835,,,2018_Sep_25_1112,60.0027199945,Stroop,pre,1009,
green,green,1,down,,,,,0,37,37,18,down,1,0.467865747841,,,2018_Sep_25_1112,60.0027199945,Stroop,pre,1009,
blue,blue,1,right,,,,,0,38,38,28,right,1,0.667340647336,,,2018_Sep_25_1112,60.0027199945,Stroop,pre,1009,
blue,blue,1,right,,,,,0,39,39,34,right,1,0.584052146261,,,2018_Sep_25_1112,60.0027199945,Stroop,pre,1009,
green,blue,0,right,,,,,0,40,40,40,right,1,0.650776517533,,,2018_Sep_25_1112,60.0027199945,Stroop,pre,1009,
red,blue,0,right,,,,,0,41,41,37,right,1,0.800317261289,,,2018_Sep_25_1112,60.0027199945,Stroop,pre,1009,
blue,blue,1,right,,,,,0,42,42,26,right,1,0.417518194485,,,2018_Sep_25_1112,60.0027199945,Stroop,pre,1009,
green,green,1,down,,,,,0,43,43,16,down,1,1.70118593798,,,2018_Sep_25_1112,60.0027199945,Stroop,pre,1009,
blue,green,0,down,,,,,0,44,44,42,down,1,0.567467489129,,,2018_Sep_25_1112,60.0027199945,Stroop,pre,1009,
green,green,1,down,,,,,1,0,45,16,down,1,0.517590638853,,,2018_Sep_25_1112,60.0027199945,Stroop,pre,1009,
blue,blue,1,right,,,,,1,1,46,35,right,1,0.884522079567,,,2018_Sep_25_1112,60.0027199945,Stroop,pre,1009,
green,green,1,down,,,,,1,2,47,17,down,1,0.848366038786,,,2018_Sep_25_1112,60.0027199945,Stroop,pre,1009,
red,red,1,left,,,,,1,3,48,0,left,1,1.05105973767,,,2018_Sep_25_1112,60.0027199945,Stroop,pre,1009,
red,red,1,left,,,,,1,4,49,3,left,1,0.534009936939,,,2018_Sep_25_1112,60.0027199945,Stroop,pre,1009,
red,green,0,down,,,,,1,5,50,36,down,1,0.867740131986,,,2018_Sep_25_1112,60.0027199945,Stroop,pre,1009,
red,red,1,left,,,,,1,6,51,2,left,1,0.984566013755,,,2018_Sep_25_1112,60.0027199945,Stroop,pre,1009,
red,red,1,left,,,,,1,7,52,6,left,1,0.601104940558,,,2018_Sep_25_1112,60.0027199945,Stroop,pre,1009,
red,blue,0,right,,,,,1,8,53,37,right,1,0.717887486853,,,2018_Sep_25_1112,60.0027199945,Stroop,pre,1009,
green,green,1,down,,,,,1,9,54,22,down,1,0.617612335101,,,2018_Sep_25_1112,60.0027199945,Stroop,pre,1009,
green,blue,0,right,,,,,1,10,55,41,right,1,1.21778499275,,,2018_Sep_25_1112,60.0027199945,Stroop,pre,1009,
green,green,1,down,,,,,1,11,56,14,down,1,0.60025106065,,,2018_Sep_25_1112,60.0027199945,Stroop,pre,1009,
blue,blue,1,right,,,,,1,12,57,25,right,1,0.684447325873,,,2018_Sep_25_1112,60.0027199945,Stroop,pre,1009,
blue,red,0,left,,,,,1,13,58,43,left,1,0.884409464353,,,2018_Sep_25_1112,60.0027199945,Stroop,pre,1009,
green,green,1,down,,,,,1,14,59,21,down,1,0.867921456734,,,2018_Sep_25_1112,60.0027199945,Stroop,pre,1009,
blue,blue,1,right,,,,,1,15,60,26,right,1,0.516999622811,,,2018_Sep_25_1112,60.0027199945,Stroop,pre,1009,
green,red,0,left,,,,,1,16,61,39,left,1,0.767988427147,,,2018_Sep_25_1112,60.0027199945,Stroop,pre,1009,
blue,blue,1,right,,,,,1,17,62,34,right,1,0.734603005714,,,2018_Sep_25_1112,60.0027199945,Stroop,pre,1009,
green,green,1,down,,,,,1,18,63,15,down,1,0.550971213555,,,2018_Sep_25_1112,60.0027199945,Stroop,pre,1009,
red,green,0,down,,,,,1,19,64,38,down,1,0.850639155483,,,2018_Sep_25_1112,60.0027199945,Stroop,pre,1009,
green,green,1,down,,,,,1,20,65,23,down,1,0.467016999765,,,2018_Sep_25_1112,60.0027199945,Stroop,pre,1009,
red,red,1,left,,,,,1,21,66,10,left,1,0.767167904151,,,2018_Sep_25_1112,60.0027199945,Stroop,pre,1009,
green,green,1,down,,,,,1,22,67,12,left,0,0.566941476297,,,2018_Sep_25_1112,60.0027199945,Stroop,pre,1009,
blue,blue,1,right,,,,,1,23,68,30,right,1,1.801282616,,,2018_Sep_25_1112,60.0027199945,Stroop,pre,1009,
blue,blue,1,right,,,,,1,24,69,33,right,1,0.884343035633,,,2018_Sep_25_1112,60.0027199945,Stroop,pre,1009,
blue,red,0,left,,,,,1,25,70,44,left,1,1.0040584242,,,2018_Sep_25_1112,60.0027199945,Stroop,pre,1009,
red,red,1,left,,,,,1,26,71,11,left,1,0.984367012695,,,2018_Sep_25_1112,60.0027199945,Stroop,pre,1009,
red,red,1,left,,,,,1,27,72,8,left,1,0.584215509595,,,2018_Sep_25_1112,60.0027199945,Stroop,pre,1009,
red,red,1,left,,,,,1,28,73,9,left,1,0.784321909588,,,2018_Sep_25_1112,60.0027199945,Stroop,pre,1009,
blue,green,0,down,,,,,1,29,74,42,down,1,1.23509951051,,,2018_Sep_25_1112,60.0027199945,Stroop,pre,1009,
blue,blue,1,right,,,,,1,30,75,32,right,1,0.684327012912,,,2018_Sep_25_1112,60.0027199945,Stroop,pre,1009,
green,green,1,down,,,,,1,31,76,13,down,1,0.815243481218,,,2018_Sep_25_1112,60.0027199945,Stroop,pre,1009,
red,red,1,left,,,,,1,32,77,4,left,1,0.93429914421,,,2018_Sep_25_1112,60.0027199945,Stroop,pre,1009,
green,green,1,down,,,,,1,33,78,18,down,1,0.617625449783,,,2018_Sep_25_1112,60.0027199945,Stroop,pre,1009,
red,red,1,left,,,,,1,34,79,1,left,1,1.03197673341,,,2018_Sep_25_1112,60.0027199945,Stroop,pre,1009,
green,blue,0,right,,,,,1,35,80,40,right,1,0.632105485387,,,2018_Sep_25_1112,60.0027199945,Stroop,pre,1009,
red,red,1,left,,,,,1,36,81,7,left,1,1.28451962769,,,2018_Sep_25_1112,60.0027199945,Stroop,pre,1009,
green,green,1,down,,,,,1,37,82,20,down,1,0.78456681204,,,2018_Sep_25_1112,60.0027199945,Stroop,pre,1009,
blue,blue,1,right,,,,,1,38,83,28,right,1,0.567604623096,,,2018_Sep_25_1112,60.0027199945,Stroop,pre,1009,
blue,blue,1,right,,,,,1,39,84,31,right,1,0.651035104871,,,2018_Sep_25_1112,60.0027199945,Stroop,pre,1009,
blue,blue,1,right,,,,,1,40,85,24,right,1,0.517478308741,,,2018_Sep_25_1112,60.0027199945,Stroop,pre,1009,
green,green,1,down,,,,,1,41,86,19,down,1,0.751941757123,,,2018_Sep_25_1112,60.0027199945,Stroop,pre,1009,
blue,blue,1,right,,,,,1,42,87,27,right,1,0.900969602731,,,2018_Sep_25_1112,60.0027199945,Stroop,pre,1009,
blue,blue,1,right,,,,,1,43,88,29,right,1,0.63419328591,,,2018_Sep_25_1112,60.0027199945,Stroop,pre,1009,
red,red,1,left,,,,,1,44,89,5,left,1,0.900214653149,,,2018_Sep_25_1112,60.0027199945,Stroop,pre,1009,
blue,blue,1,right,,,,,2,0,90,32,right,1,1.01748557884,,,2018_Sep_25_1112,60.0027199945,Stroop,pre,1009,
green,green,1,down,,,,,2,1,91,16,down,1,0.683984890745,,,2018_Sep_25_1112,60.0027199945,Stroop,pre,1009,
red,red,1,left,,,,,2,2,92,5,left,1,1.70162499476,,,2018_Sep_25_1112,60.0027199945,Stroop,pre,1009,
blue,blue,1,right,,,,,2,3,93,25,right,1,0.667643995656,,,2018_Sep_25_1112,60.0027199945,Stroop,pre,1009,
green,green,1,down,,,,,2,4,94,19,down,1,1.08447794581,,,2018_Sep_25_1112,60.0027199945,Stroop,pre,1009,
green,green,1,down,,,,,2,5,95,17,down,1,0.617281617006,,,2018_Sep_25_1112,60.0027199945,Stroop,pre,1009,
blue,blue,1,right,,,,,2,6,96,35,right,1,1.08439270037,,,2018_Sep_25_1112,60.0027199945,Stroop,pre,1009,
green,green,1,down,,,,,2,7,97,20,down,1,0.831754011881,,,2018_Sep_25_1112,60.0027199945,Stroop,pre,1009,
red,red,1,left,,,,,2,8,98,8,left,1,0.683849182285,,,2018_Sep_25_1112,60.0027199945,Stroop,pre,1009,
red,green,0,down,,,,,2,9,99,38,down,1,1.10067514959,,,2018_Sep_25_1112,60.0027199945,Stroop,pre,1009,
red,red,1,left,,,,,2,10,100,2,left,1,0.817320732975,,,2018_Sep_25_1112,60.0027199945,Stroop,pre,1009,
green,green,1,down,,,,,2,11,101,12,down,1,0.600434666212,,,2018_Sep_25_1112,60.0027199945,Stroop,pre,1009,
green,green,1,down,,,,,2,12,102,14,down,1,0.53423744818,,,2018_Sep_25_1112,60.0027199945,Stroop,pre,1009,
green,green,1,down,,,,,2,13,103,15,down,1,0.517573532746,,,2018_Sep_25_1112,60.0027199945,Stroop,pre,1009,
green,blue,0,right,,,,,2,14,104,40,right,1,0.650942731885,,,2018_Sep_25_1112,60.0027199945,Stroop,pre,1009,
blue,green,0,down,,,,,2,15,105,42,down,1,0.751447390591,,,2018_Sep_25_1112,60.0027199945,Stroop,pre,1009,
red,red,1,left,,,,,2,16,106,9,left,1,0.78436781098,,,2018_Sep_25_1112,60.0027199945,Stroop,pre,1009,
red,red,1,left,,,,,2,17,107,4,left,1,0.584294767897,,,2018_Sep_25_1112,60.0027199945,Stroop,pre,1009,
blue,red,0,left,,,,,2,18,108,43,left,1,0.851068518802,,,2018_Sep_25_1112,60.0027199945,Stroop,pre,1009,
blue,blue,1,right,,,,,2,19,109,28,right,1,0.967772091898,,,2018_Sep_25_1112,60.0027199945,Stroop,pre,1009,
green,green,1,down,,,,,2,20,110,21,down,1,0.700832696843,,,2018_Sep_25_1112,60.0027199945,Stroop,pre,1009,
red,red,1,left,,,,,2,21,111,10,left,1,0.700665342084,,,2018_Sep_25_1112,60.0027199945,Stroop,pre,1009,
red,red,1,left,,,,,2,22,112,3,left,1,0.617574701662,,,2018_Sep_25_1112,60.0027199945,Stroop,pre,1009,
green,green,1,down,,,,,2,23,113,22,down,1,0.917298523544,,,2018_Sep_25_1112,60.0027199945,Stroop,pre,1009,
green,green,1,down,,,,,2,24,114,23,down,1,0.534548494249,,,2018_Sep_25_1112,60.0027199945,Stroop,pre,1009,
red,red,1,left,,,,,2,25,115,0,left,1,0.734374354066,,,2018_Sep_25_1112,60.0027199945,Stroop,pre,1009,
blue,blue,1,right,,,,,2,26,116,27,right,1,0.815530008533,,,2018_Sep_25_1112,60.0027199945,Stroop,pre,1009,
blue,blue,1,right,,,,,2,27,117,29,right,1,0.701063629306,,,2018_Sep_25_1112,60.0027199945,Stroop,pre,1009,
green,red,0,left,,,,,2,28,118,39,left,1,0.868005276664,,,2018_Sep_25_1112,60.0027199945,Stroop,pre,1009,
red,green,0,down,,,,,2,29,119,36,down,1,0.716868533,,,2018_Sep_25_1112,60.0027199945,Stroop,pre,1009,
green,blue,0,right,,,,,2,30,120,41,right,1,0.650845512169,,,2018_Sep_25_1112,60.0027199945,Stroop,pre,1009,
red,red,1,left,,,,,2,31,121,6,left,1,1.00137846723,,,2018_Sep_25_1112,60.0027199945,Stroop,pre,1009,
green,green,1,down,,,,,2,32,122,13,down,1,0.617080050029,,,2018_Sep_25_1112,60.0027199945,Stroop,pre,1009,
blue,blue,1,right,,,,,2,33,123,31,right,1,1.16903999665,,,2018_Sep_25_1112,60.0027199945,Stroop,pre,1009,
blue,blue,1,right,,,,,2,34,124,26,right,1,0.601268303893,,,2018_Sep_25_1112,60.0027199945,Stroop,pre,1009,
blue,blue,1,right,,,,,2,35,125,24,right,1,0.635009532379,,,2018_Sep_25_1112,60.0027199945,Stroop,pre,1009,
green,green,1,down,,,,,2,36,126,18,down,1,0.685570341886,,,2018_Sep_25_1112,60.0027199945,Stroop,pre,1009,
blue,blue,1,right,,,,,2,37,127,30,right,1,0.968157264437,,,2018_Sep_25_1112,60.0027199945,Stroop,pre,1009,
blue,blue,1,right,,,,,2,38,128,34,right,1,0.484287611842,,,2018_Sep_25_1112,60.0027199945,Stroop,pre,1009,
red,blue,0,right,,,,,2,39,129,37,right,1,0.416027112041,,,2018_Sep_25_1112,60.0027199945,Stroop,pre,1009,
red,red,1,left,,,,,2,40,130,11,left,1,1.36852145348,,,2018_Sep_25_1112,60.0027199945,Stroop,pre,1009,
red,red,1,left,,,,,2,41,131,7,left,1,0.483648413594,,,2018_Sep_25_1112,60.0027199945,Stroop,pre,1009,
blue,red,0,left,,,,,2,42,132,44,left,1,0.450575178638,,,2018_Sep_25_1112,60.0027199945,Stroop,pre,1009,
blue,blue,1,right,,,,,2,43,133,33,right,1,0.817707901226,,,2018_Sep_25_1112,60.0027199945,Stroop,pre,1009,
red,red,1,left,,,,,2,44,134,1,left,1,0.651220991248,,,2018_Sep_25_1112,60.0027199945,Stroop,pre,1009,
red,red,1,left,,,,,3,0,135,3,left,1,0.634511459525,,,2018_Sep_25_1112,60.0027199945,Stroop,pre,1009,
red,red,1,left,,,,,3,1,136,11,left,1,0.45099712931,,,2018_Sep_25_1112,60.0027199945,Stroop,pre,1009,
blue,green,0,down,,,,,3,2,137,42,down,1,0.85072867745,,,2018_Sep_25_1112,60.0027199945,Stroop,pre,1009,
blue,blue,1,right,,,,,3,3,138,26,right,1,0.700991498549,,,2018_Sep_25_1112,60.0027199945,Stroop,pre,1009,
blue,blue,1,right,,,,,3,4,139,27,right,1,0.500783887414,,,2018_Sep_25_1112,60.0027199945,Stroop,pre,1009,
red,red,1,left,,,,,3,5,140,5,left,1,0.751162003684,,,2018_Sep_25_1112,60.0027199945,Stroop,pre,1009,
red,red,1,left,,,,,3,6,141,1,left,1,0.501082103903,,,2018_Sep_25_1112,60.0027199945,Stroop,pre,1009,
red,red,1,left,,,,,3,7,142,10,left,1,0.484827024457,,,2018_Sep_25_1112,60.0027199945,Stroop,pre,1009,
blue,blue,1,right,,,,,3,8,143,34,right,1,0.768033758334,,,2018_Sep_25_1112,60.0027199945,Stroop,pre,1009,
blue,red,0,left,,,,,3,9,144,43,left,1,0.699939757988,,,2018_Sep_25_1112,60.0027199945,Stroop,pre,1009,
red,red,1,left,,,,,3,10,145,0,left,1,1.23450763916,,,2018_Sep_25_1112,60.0027199945,Stroop,pre,1009,
green,green,1,down,,,,,3,11,146,14,down,1,0.834360127486,,,2018_Sep_25_1112,60.0027199945,Stroop,pre,1009,
blue,blue,1,right,,,,,3,12,147,31,right,1,1.15112020776,,,2018_Sep_25_1112,60.0027199945,Stroop,pre,1009,
green,green,1,down,,,,,3,13,148,15,down,1,0.68430163885,,,2018_Sep_25_1112,60.0027199945,Stroop,pre,1009,
green,green,1,down,,,,,3,14,149,13,down,1,0.567127647776,,,2018_Sep_25_1112,60.0027199945,Stroop,pre,1009,
green,green,1,down,,,,,3,15,150,22,down,1,0.434230577226,,,2018_Sep_25_1112,60.0027199945,Stroop,pre,1009,
blue,red,0,left,,,,,3,16,151,44,left,1,1.0187425927,,,2018_Sep_25_1112,60.0027199945,Stroop,pre,1009,
blue,blue,1,right,,,,,3,17,152,35,right,1,0.834256920632,,,2018_Sep_25_1112,60.0027199945,Stroop,pre,1009,
blue,blue,1,right,,,,,3,18,153,33,right,1,0.584916289834,,,2018_Sep_25_1112,60.0027199945,Stroop,pre,1009,
red,red,1,left,,,,,3,19,154,8,left,1,0.950320725276,,,2018_Sep_25_1112,60.0027199945,Stroop,pre,1009,
red,blue,0,right,,,,,3,20,155,37,right,1,2.03476702478,,,2018_Sep_25_1112,60.0027199945,Stroop,pre,1009,
blue,blue,1,right,,,,,3,21,156,28,right,1,0.567057797834,,,2018_Sep_25_1112,60.0027199945,Stroop,pre,1009,
red,red,1,left,,,,,3,22,157,4,left,1,0.851389543435,,,2018_Sep_25_1112,60.0027199945,Stroop,pre,1009,
blue,blue,1,right,,,,,3,23,158,32,right,1,0.650868890518,,,2018_Sep_25_1112,60.0027199945,Stroop,pre,1009,
red,green,0,down,,,,,3,24,159,36,down,1,1.20416739011,,,2018_Sep_25_1112,60.0027199945,Stroop,pre,1009,
green,green,1,down,,,,,3,25,160,21,down,1,0.683897649593,,,2018_Sep_25_1112,60.0027199945,Stroop,pre,1009,
red,green,0,down,,,,,3,26,161,38,down,1,0.467057484222,,,2018_Sep_25_1112,60.0027199945,Stroop,pre,1009,
green,green,1,down,,,,,3,27,162,16,down,1,0.484005075953,,,2018_Sep_25_1112,60.0027199945,Stroop,pre,1009,
blue,blue,1,right,,,,,3,28,163,29,right,1,0.718589122397,,,2018_Sep_25_1112,60.0027199945,Stroop,pre,1009,
blue,blue,1,right,,,,,3,29,164,25,right,1,0.51741957777,,,2018_Sep_25_1112,60.0027199945,Stroop,pre,1009,
blue,blue,1,right,,,,,3,30,165,24,right,1,0.600349705875,,,2018_Sep_25_1112,60.0027199945,Stroop,pre,1009,
green,green,1,down,,,,,3,31,166,17,down,1,0.550938426849,,,2018_Sep_25_1112,60.0027199945,Stroop,pre,1009,
green,green,1,down,,,,,3,32,167,19,down,1,0.634203264472,,,2018_Sep_25_1112,60.0027199945,Stroop,pre,1009,
green,green,1,down,,,,,3,33,168,18,down,1,0.434156735858,,,2018_Sep_25_1112,60.0027199945,Stroop,pre,1009,
red,red,1,left,,,,,3,34,169,2,left,1,0.933886316795,,,2018_Sep_25_1112,60.0027199945,Stroop,pre,1009,
green,green,1,down,,,,,3,35,170,12,right,0,0.701282017289,,,2018_Sep_25_1112,60.0027199945,Stroop,pre,1009,
blue,blue,1,right,,,,,3,36,171,30,right,1,0.633893073708,,,2018_Sep_25_1112,60.0027199945,Stroop,pre,1009,
red,red,1,left,,,,,3,37,172,9,left,1,0.717244582282,,,2018_Sep_25_1112,60.0027199945,Stroop,pre,1009,
green,red,0,left,,,,,3,38,173,39,left,1,0.91787442919,,,2018_Sep_25_1112,60.0027199945,Stroop,pre,1009,
red,red,1,left,,,,,3,39,174,6,left,1,0.634264846462,,,2018_Sep_25_1112,60.0027199945,Stroop,pre,1009,
red,red,1,left,,,,,3,40,175,7,left,1,0.50084946083,,,2018_Sep_25_1112,60.0027199945,Stroop,pre,1009,
green,blue,0,right,,,,,3,41,176,40,right,1,0.83395499782,,,2018_Sep_25_1112,60.0027199945,Stroop,pre,1009,
green,green,1,down,,,,,3,42,177,20,down,1,1.41802425019,,,2018_Sep_25_1112,60.0027199945,Stroop,pre,1009,
green,green,1,down,,,,,3,43,178,23,down,1,0.517728913229,,,2018_Sep_25_1112,60.0027199945,Stroop,pre,1009,
green,blue,0,right,,,,,3,44,179,41,right,1,1.01755058205,,,2018_Sep_25_1112,60.0027199945,Stroop,pre,1009,
,,,,,,,,,,,,,,,space,1.94050210419,2018_Sep_25_1112,60.0027199945,Stroop,pre,1009,
