word,color,congruent,corrAns,practice.thisRepN,practice.thisTrialN,practice.thisN,practice.thisIndex,trials.thisRepN,trials.thisTrialN,trials.thisN,trials.thisIndex,resp_time.keys,resp_time.corr,resp_time.rt,key_resp_5.keys,key_resp_5.rt,date,frameRate,expName,Session,Participant,
green,green,1,down,0,0,0,3,,,,,down,1,2.56781775603,,,2019_Mar_01_1649,59.8164671374,Stroop,pre,1011,
blue,green,0,down,0,1,1,10,,,,,down,1,1.13431263931,,,2019_Mar_01_1649,59.8164671374,Stroop,pre,1011,
green,red,0,left,0,2,2,8,,,,,left,1,1.2011117263,,,2019_Mar_01_1649,59.8164671374,Stroop,pre,1011,
red,green,0,down,0,3,3,7,,,,,down,1,0.71746545563,,,2019_Mar_01_1649,59.8164671374,Stroop,pre,1011,
blue,blue,1,right,0,4,4,5,,,,,right,1,0.517878454223,,,2019_Mar_01_1649,59.8164671374,Stroop,pre,1011,
red,green,0,down,0,5,5,6,,,,,down,1,0.750085388015,,,2019_Mar_01_1649,59.8164671374,Stroop,pre,1011,
green,green,1,down,0,6,6,2,,,,,down,1,0.48348946463,,,2019_Mar_01_1649,59.8164671374,Stroop,pre,1011,
red,red,1,left,0,7,7,1,,,,,left,1,0.63404093721,,,2019_Mar_01_1649,59.8164671374,Stroop,pre,1011,
green,blue,0,right,0,8,8,9,,,,,right,1,0.93357411138,,,2019_Mar_01_1649,59.8164671374,Stroop,pre,1011,
blue,blue,1,right,0,9,9,4,,,,,right,1,0.500735562868,,,2019_Mar_01_1649,59.8164671374,Stroop,pre,1011,
blue,red,0,left,0,10,10,11,,,,,left,1,1.30056353239,,,2019_Mar_01_1649,59.8164671374,Stroop,pre,1011,
red,red,1,left,0,11,11,0,,,,,left,1,0.566929663654,,,2019_Mar_01_1649,59.8164671374,Stroop,pre,1011,
red,green,0,down,1,0,12,6,,,,,down,1,0.550522335167,,,2019_Mar_01_1649,59.8164671374,Stroop,pre,1011,
green,green,1,down,1,1,13,2,,,,,down,1,0.583789733937,,,2019_Mar_01_1649,59.8164671374,Stroop,pre,1011,
blue,green,0,down,1,2,14,10,,,,,down,1,0.650585684806,,,2019_Mar_01_1649,59.8164671374,Stroop,pre,1011,
blue,blue,1,right,1,3,15,5,,,,,right,1,0.633791473058,,,2019_Mar_01_1649,59.8164671374,Stroop,pre,1011,
green,green,1,down,1,4,16,3,,,,,down,1,0.66724475826,,,2019_Mar_01_1649,59.8164671374,Stroop,pre,1011,
red,red,1,left,1,5,17,1,,,,,left,1,0.567422034613,,,2019_Mar_01_1649,59.8164671374,Stroop,pre,1011,
green,blue,0,right,1,6,18,9,,,,,right,1,0.984046553717,,,2019_Mar_01_1649,59.8164671374,Stroop,pre,1011,
blue,red,0,left,1,7,19,11,,,,,left,1,0.93422984572,,,2019_Mar_01_1649,59.8164671374,Stroop,pre,1011,
red,green,0,down,1,8,20,7,,,,,down,1,0.650874493018,,,2019_Mar_01_1649,59.8164671374,Stroop,pre,1011,
green,red,0,left,1,9,21,8,,,,,left,1,0.917709901988,,,2019_Mar_01_1649,59.8164671374,Stroop,pre,1011,
blue,blue,1,right,1,10,22,4,,,,,right,1,0.534101321789,,,2019_Mar_01_1649,59.8164671374,Stroop,pre,1011,
red,red,1,left,1,11,23,0,,,,,left,1,0.984000367211,,,2019_Mar_01_1649,59.8164671374,Stroop,pre,1011,
green,green,1,down,,,,,0,0,0,20,down,1,0.700561764758,,,2019_Mar_01_1649,59.8164671374,Stroop,pre,1011,
blue,green,0,down,,,,,0,1,1,42,down,1,0.984117829189,,,2019_Mar_01_1649,59.8164671374,Stroop,pre,1011,
green,green,1,down,,,,,0,2,2,22,down,1,0.600345600507,,,2019_Mar_01_1649,59.8164671374,Stroop,pre,1011,
green,green,1,down,,,,,0,3,3,15,down,1,0.450993266464,,,2019_Mar_01_1649,59.8164671374,Stroop,pre,1011,
red,red,1,left,,,,,0,4,4,0,left,1,0.600573111813,,,2019_Mar_01_1649,59.8164671374,Stroop,pre,1011,
red,red,1,left,,,,,0,5,5,8,left,1,0.433717517629,,,2019_Mar_01_1649,59.8164671374,Stroop,pre,1011,
red,red,1,left,,,,,0,6,6,4,left,1,0.433882591622,,,2019_Mar_01_1649,59.8164671374,Stroop,pre,1011,
green,green,1,down,,,,,0,7,7,14,down,1,0.550860751106,,,2019_Mar_01_1649,59.8164671374,Stroop,pre,1011,
red,red,1,left,,,,,0,8,8,10,left,1,0.649931375975,,,2019_Mar_01_1649,59.8164671374,Stroop,pre,1011,
blue,blue,1,right,,,,,0,9,9,27,right,1,0.567548619851,,,2019_Mar_01_1649,59.8164671374,Stroop,pre,1011,
red,red,1,left,,,,,0,10,10,6,left,1,0.883770803172,,,2019_Mar_01_1649,59.8164671374,Stroop,pre,1011,
green,green,1,down,,,,,0,11,11,21,down,1,0.533864117019,,,2019_Mar_01_1649,59.8164671374,Stroop,pre,1011,
blue,blue,1,right,,,,,0,12,12,29,right,1,0.500232928242,,,2019_Mar_01_1649,59.8164671374,Stroop,pre,1011,
blue,blue,1,right,,,,,0,13,13,34,right,1,0.483438431392,,,2019_Mar_01_1649,59.8164671374,Stroop,pre,1011,
blue,blue,1,right,,,,,0,14,14,31,right,1,0.45065428032,,,2019_Mar_01_1649,59.8164671374,Stroop,pre,1011,
red,red,1,left,,,,,0,15,15,11,left,1,0.550388907484,,,2019_Mar_01_1649,59.8164671374,Stroop,pre,1011,
blue,blue,1,right,,,,,0,16,16,30,right,1,0.633662321904,,,2019_Mar_01_1649,59.8164671374,Stroop,pre,1011,
red,blue,0,right,,,,,0,17,17,37,right,1,0.600904115104,,,2019_Mar_01_1649,59.8164671374,Stroop,pre,1011,
green,red,0,left,,,,,0,18,18,39,left,1,1.38412661033,,,2019_Mar_01_1649,59.8164671374,Stroop,pre,1011,
red,green,0,down,,,,,0,19,19,38,down,1,0.683681737342,,,2019_Mar_01_1649,59.8164671374,Stroop,pre,1011,
green,green,1,down,,,,,0,20,20,12,down,1,1.13421713018,,,2019_Mar_01_1649,59.8164671374,Stroop,pre,1011,
green,green,1,down,,,,,0,21,21,13,down,1,0.501448887789,,,2019_Mar_01_1649,59.8164671374,Stroop,pre,1011,
blue,blue,1,right,,,,,0,22,22,26,right,1,0.650658955991,,,2019_Mar_01_1649,59.8164671374,Stroop,pre,1011,
blue,blue,1,right,,,,,0,23,23,32,right,1,0.467189049351,,,2019_Mar_01_1649,59.8164671374,Stroop,pre,1011,
red,red,1,left,,,,,0,24,24,7,left,1,0.583637774632,,,2019_Mar_01_1649,59.8164671374,Stroop,pre,1011,
blue,red,0,left,,,,,0,25,25,44,left,1,0.984160594472,,,2019_Mar_01_1649,59.8164671374,Stroop,pre,1011,
blue,blue,1,right,,,,,0,26,26,24,right,1,0.633981636017,,,2019_Mar_01_1649,59.8164671374,Stroop,pre,1011,
green,green,1,down,,,,,0,27,27,19,down,1,0.603104816568,,,2019_Mar_01_1649,59.8164671374,Stroop,pre,1011,
green,blue,0,right,,,,,0,28,28,40,down,0,0.71723281249,,,2019_Mar_01_1649,59.8164671374,Stroop,pre,1011,
blue,blue,1,right,,,,,0,29,29,25,right,1,1.5503005259,,,2019_Mar_01_1649,59.8164671374,Stroop,pre,1011,
red,red,1,left,,,,,0,30,30,5,left,1,0.667416104493,,,2019_Mar_01_1649,59.8164671374,Stroop,pre,1011,
green,blue,0,right,,,,,0,31,31,41,right,1,1.01771052921,,,2019_Mar_01_1649,59.8164671374,Stroop,pre,1011,
red,red,1,left,,,,,0,32,32,3,left,1,1.10046790922,,,2019_Mar_01_1649,59.8164671374,Stroop,pre,1011,
green,green,1,down,,,,,0,33,33,18,down,1,0.717612568204,,,2019_Mar_01_1649,59.8164671374,Stroop,pre,1011,
red,red,1,left,,,,,0,34,34,2,left,1,0.717130175811,,,2019_Mar_01_1649,59.8164671374,Stroop,pre,1011,
green,green,1,down,,,,,0,35,35,16,down,1,0.833945257016,,,2019_Mar_01_1649,59.8164671374,Stroop,pre,1011,
red,red,1,left,,,,,0,36,36,9,left,1,0.917059869686,,,2019_Mar_01_1649,59.8164671374,Stroop,pre,1011,
blue,blue,1,right,,,,,0,37,37,35,right,1,0.967365812521,,,2019_Mar_01_1649,59.8164671374,Stroop,pre,1011,
green,green,1,down,,,,,0,38,38,23,down,1,0.784239168552,,,2019_Mar_01_1649,59.8164671374,Stroop,pre,1011,
red,red,1,left,,,,,0,39,39,1,left,1,0.617620208934,,,2019_Mar_01_1649,59.8164671374,Stroop,pre,1011,
blue,blue,1,right,,,,,0,40,40,33,right,1,0.550745569944,,,2019_Mar_01_1649,59.8164671374,Stroop,pre,1011,
green,green,1,down,,,,,0,41,41,17,down,1,0.484023175362,,,2019_Mar_01_1649,59.8164671374,Stroop,pre,1011,
blue,blue,1,right,,,,,0,42,42,28,right,1,0.667260438863,,,2019_Mar_01_1649,59.8164671374,Stroop,pre,1011,
blue,red,0,left,,,,,0,43,43,43,down,0,0.967766950875,,,2019_Mar_01_1649,59.8164671374,Stroop,pre,1011,
red,green,0,down,,,,,0,44,44,36,down,1,2.83486870203,,,2019_Mar_01_1649,59.8164671374,Stroop,pre,1011,
red,red,1,left,,,,,1,0,45,8,left,1,1.13403808619,,,2019_Mar_01_1649,59.8164671374,Stroop,pre,1011,
green,green,1,down,,,,,1,1,46,22,down,1,0.834092939794,,,2019_Mar_01_1649,59.8164671374,Stroop,pre,1011,
green,blue,0,right,,,,,1,2,47,41,right,1,1.56755432189,,,2019_Mar_01_1649,59.8164671374,Stroop,pre,1011,
blue,blue,1,right,,,,,1,3,48,30,right,1,0.66699557921,,,2019_Mar_01_1649,59.8164671374,Stroop,pre,1011,
green,green,1,down,,,,,1,4,49,23,down,1,0.684073467335,,,2019_Mar_01_1649,59.8164671374,Stroop,pre,1011,
red,green,0,down,,,,,1,5,50,36,down,1,1.03427523394,,,2019_Mar_01_1649,59.8164671374,Stroop,pre,1011,
red,red,1,left,,,,,1,6,51,7,left,1,0.551085126292,,,2019_Mar_01_1649,59.8164671374,Stroop,pre,1011,
green,green,1,down,,,,,1,7,52,14,down,1,0.717295534906,,,2019_Mar_01_1649,59.8164671374,Stroop,pre,1011,
blue,blue,1,right,,,,,1,8,53,31,right,1,0.567249833073,,,2019_Mar_01_1649,59.8164671374,Stroop,pre,1011,
blue,blue,1,right,,,,,1,9,54,28,right,1,0.550449063982,,,2019_Mar_01_1649,59.8164671374,Stroop,pre,1011,
green,green,1,down,,,,,1,10,55,12,down,1,1.06713465191,,,2019_Mar_01_1649,59.8164671374,Stroop,pre,1011,
green,green,1,down,,,,,1,11,56,15,down,1,0.550265743469,,,2019_Mar_01_1649,59.8164671374,Stroop,pre,1011,
green,green,1,down,,,,,1,12,57,19,down,1,0.583506912866,,,2019_Mar_01_1649,59.8164671374,Stroop,pre,1011,
blue,blue,1,right,,,,,1,13,58,35,right,1,0.633542864213,,,2019_Mar_01_1649,59.8164671374,Stroop,pre,1011,
blue,blue,1,right,,,,,1,14,59,24,right,1,0.567506139669,,,2019_Mar_01_1649,59.8164671374,Stroop,pre,1011,
blue,blue,1,right,,,,,1,15,60,34,right,1,0.434409745011,,,2019_Mar_01_1649,59.8164671374,Stroop,pre,1011,
red,red,1,left,,,,,1,16,61,5,left,1,0.584002419945,,,2019_Mar_01_1649,59.8164671374,Stroop,pre,1011,
red,red,1,left,,,,,1,17,62,2,left,1,0.384002876108,,,2019_Mar_01_1649,59.8164671374,Stroop,pre,1011,
blue,blue,1,right,,,,,1,18,63,32,right,1,1.63322497561,,,2019_Mar_01_1649,59.8164671374,Stroop,pre,1011,
blue,blue,1,right,,,,,1,19,64,33,right,1,0.517514664215,,,2019_Mar_01_1649,59.8164671374,Stroop,pre,1011,
red,red,1,left,,,,,1,20,65,3,left,1,0.700698613663,,,2019_Mar_01_1649,59.8164671374,Stroop,pre,1011,
red,red,1,left,,,,,1,21,66,11,left,1,0.550658328767,,,2019_Mar_01_1649,59.8164671374,Stroop,pre,1011,
red,red,1,left,,,,,1,22,67,6,left,1,0.500552527456,,,2019_Mar_01_1649,59.8164671374,Stroop,pre,1011,
green,green,1,down,,,,,1,23,68,20,down,1,0.601134477428,,,2019_Mar_01_1649,59.8164671374,Stroop,pre,1011,
green,green,1,down,,,,,1,24,69,13,down,1,0.400712412595,,,2019_Mar_01_1649,59.8164671374,Stroop,pre,1011,
green,green,1,down,,,,,1,25,70,21,down,1,0.333665286963,,,2019_Mar_01_1649,59.8164671374,Stroop,pre,1011,
green,green,1,down,,,,,1,26,71,16,down,1,0.400507994542,,,2019_Mar_01_1649,59.8164671374,Stroop,pre,1011,
blue,green,0,down,,,,,1,27,72,42,down,1,0.383600312243,,,2019_Mar_01_1649,59.8164671374,Stroop,pre,1011,
red,blue,0,right,,,,,1,28,73,37,right,1,0.717311785713,,,2019_Mar_01_1649,59.8164671374,Stroop,pre,1011,
red,red,1,left,,,,,1,29,74,9,left,1,0.500208409479,,,2019_Mar_01_1649,59.8164671374,Stroop,pre,1011,
blue,blue,1,right,,,,,1,30,75,29,right,1,0.500399997947,,,2019_Mar_01_1649,59.8164671374,Stroop,pre,1011,
blue,blue,1,right,,,,,1,31,76,25,right,1,0.484585966487,,,2019_Mar_01_1649,59.8164671374,Stroop,pre,1011,
green,green,1,down,,,,,1,32,77,18,down,1,0.800796175529,,,2019_Mar_01_1649,59.8164671374,Stroop,pre,1011,
red,red,1,left,,,,,1,33,78,1,left,1,0.667250175195,,,2019_Mar_01_1649,59.8164671374,Stroop,pre,1011,
red,red,1,left,,,,,1,34,79,0,left,1,0.483698729415,,,2019_Mar_01_1649,59.8164671374,Stroop,pre,1011,
red,red,1,left,,,,,1,35,80,4,left,1,0.401114691357,,,2019_Mar_01_1649,59.8164671374,Stroop,pre,1011,
red,red,1,left,,,,,1,36,81,10,left,1,0.417612967346,,,2019_Mar_01_1649,59.8164671374,Stroop,pre,1011,
blue,red,0,left,,,,,1,37,82,44,left,1,0.382930322809,,,2019_Mar_01_1649,59.8164671374,Stroop,pre,1011,
red,green,0,down,,,,,1,38,83,38,down,1,0.616831617115,,,2019_Mar_01_1649,59.8164671374,Stroop,pre,1011,
green,green,1,down,,,,,1,39,84,17,down,1,0.367159341734,,,2019_Mar_01_1649,59.8164671374,Stroop,pre,1011,
blue,red,0,left,,,,,1,40,85,43,left,1,0.567436859911,,,2019_Mar_01_1649,59.8164671374,Stroop,pre,1011,
blue,blue,1,right,,,,,1,41,86,26,right,1,0.550772939725,,,2019_Mar_01_1649,59.8164671374,Stroop,pre,1011,
green,blue,0,right,,,,,1,42,87,40,right,1,0.667557800131,,,2019_Mar_01_1649,59.8164671374,Stroop,pre,1011,
blue,blue,1,right,,,,,1,43,88,27,right,1,0.383870873934,,,2019_Mar_01_1649,59.8164671374,Stroop,pre,1011,
green,red,0,left,,,,,1,44,89,39,left,1,0.800410147574,,,2019_Mar_01_1649,59.8164671374,Stroop,pre,1011,
blue,blue,1,right,,,,,2,0,90,34,down,0,0.76730525688,,,2019_Mar_01_1649,59.8164671374,Stroop,pre,1011,
blue,red,0,left,,,,,2,1,91,43,left,1,1.41767198344,,,2019_Mar_01_1649,59.8164671374,Stroop,pre,1011,
red,red,1,left,,,,,2,2,92,1,left,1,0.500280825358,,,2019_Mar_01_1649,59.8164671374,Stroop,pre,1011,
blue,blue,1,right,,,,,2,3,93,26,right,1,0.633390619806,,,2019_Mar_01_1649,59.8164671374,Stroop,pre,1011,
red,red,1,left,,,,,2,4,94,0,left,1,0.833913895809,,,2019_Mar_01_1649,59.8164671374,Stroop,pre,1011,
blue,blue,1,right,,,,,2,5,95,28,right,1,0.583756947221,,,2019_Mar_01_1649,59.8164671374,Stroop,pre,1011,
red,red,1,left,,,,,2,6,96,2,left,1,0.616838174458,,,2019_Mar_01_1649,59.8164671374,Stroop,pre,1011,
green,blue,0,right,,,,,2,7,97,40,right,1,0.700215651067,,,2019_Mar_01_1649,59.8164671374,Stroop,pre,1011,
blue,blue,1,right,,,,,2,8,98,25,right,1,0.634229959761,,,2019_Mar_01_1649,59.8164671374,Stroop,pre,1011,
green,green,1,down,,,,,2,9,99,21,down,1,0.666630078591,,,2019_Mar_01_1649,59.8164671374,Stroop,pre,1011,
green,red,0,left,,,,,2,10,100,39,left,1,1.21774685119,,,2019_Mar_01_1649,59.8164671374,Stroop,pre,1011,
red,red,1,left,,,,,2,11,101,4,left,1,0.449677236154,,,2019_Mar_01_1649,59.8164671374,Stroop,pre,1011,
red,red,1,left,,,,,2,12,102,9,left,1,0.384124044409,,,2019_Mar_01_1649,59.8164671374,Stroop,pre,1011,
green,green,1,down,,,,,2,13,103,12,down,1,0.68324011452,,,2019_Mar_01_1649,59.8164671374,Stroop,pre,1011,
red,blue,0,right,,,,,2,14,104,37,right,1,0.617613366489,,,2019_Mar_01_1649,59.8164671374,Stroop,pre,1011,
green,green,1,down,,,,,2,15,105,14,down,1,0.617451998821,,,2019_Mar_01_1649,59.8164671374,Stroop,pre,1011,
blue,blue,1,right,,,,,2,16,106,33,right,1,0.548574519076,,,2019_Mar_01_1649,59.8164671374,Stroop,pre,1011,
blue,blue,1,right,,,,,2,17,107,32,right,1,0.516899699445,,,2019_Mar_01_1649,59.8164671374,Stroop,pre,1011,
red,red,1,left,,,,,2,18,108,3,left,1,0.701176729528,,,2019_Mar_01_1649,59.8164671374,Stroop,pre,1011,
blue,red,0,left,,,,,2,19,109,44,left,1,0.566257963608,,,2019_Mar_01_1649,59.8164671374,Stroop,pre,1011,
green,green,1,down,,,,,2,20,110,18,down,1,0.817391956363,,,2019_Mar_01_1649,59.8164671374,Stroop,pre,1011,
red,red,1,left,,,,,2,21,111,6,left,1,0.600488721655,,,2019_Mar_01_1649,59.8164671374,Stroop,pre,1011,
red,green,0,down,,,,,2,22,112,38,down,1,0.633578216848,,,2019_Mar_01_1649,59.8164671374,Stroop,pre,1011,
green,green,1,down,,,,,2,23,113,20,down,1,0.4170168193,,,2019_Mar_01_1649,59.8164671374,Stroop,pre,1011,
red,red,1,left,,,,,2,24,114,11,left,1,0.550279143257,,,2019_Mar_01_1649,59.8164671374,Stroop,pre,1011,
green,green,1,down,,,,,2,25,115,15,down,1,0.567568006778,,,2019_Mar_01_1649,59.8164671374,Stroop,pre,1011,
blue,blue,1,right,,,,,2,26,116,31,right,1,0.533535109442,,,2019_Mar_01_1649,59.8164671374,Stroop,pre,1011,
red,red,1,left,,,,,2,27,117,5,left,1,0.618615784723,,,2019_Mar_01_1649,59.8164671374,Stroop,pre,1011,
green,green,1,down,,,,,2,28,118,22,down,1,0.616767469191,,,2019_Mar_01_1649,59.8164671374,Stroop,pre,1011,
red,green,0,down,,,,,2,29,119,36,down,1,0.649851262346,,,2019_Mar_01_1649,59.8164671374,Stroop,pre,1011,
red,red,1,left,,,,,2,30,120,8,left,1,0.851270328477,,,2019_Mar_01_1649,59.8164671374,Stroop,pre,1011,
blue,green,0,down,,,,,2,31,121,42,down,1,1.35126975827,,,2019_Mar_01_1649,59.8164671374,Stroop,pre,1011,
green,green,1,down,,,,,2,32,122,13,down,1,0.449567757029,,,2019_Mar_01_1649,59.8164671374,Stroop,pre,1011,
blue,blue,1,right,,,,,2,33,123,30,right,1,0.583804844337,,,2019_Mar_01_1649,59.8164671374,Stroop,pre,1011,
blue,blue,1,right,,,,,2,34,124,27,right,1,0.418729426335,,,2019_Mar_01_1649,59.8164671374,Stroop,pre,1011,
green,green,1,down,,,,,2,35,125,16,down,1,0.584025513198,,,2019_Mar_01_1649,59.8164671374,Stroop,pre,1011,
blue,blue,1,right,,,,,2,36,126,29,right,1,0.566635723608,,,2019_Mar_01_1649,59.8164671374,Stroop,pre,1011,
red,red,1,left,,,,,2,37,127,7,left,1,0.567139783745,,,2019_Mar_01_1649,59.8164671374,Stroop,pre,1011,
red,red,1,left,,,,,2,38,128,10,left,1,0.56700008382,,,2019_Mar_01_1649,59.8164671374,Stroop,pre,1011,
green,green,1,down,,,,,2,39,129,19,down,1,0.61765584667,,,2019_Mar_01_1649,59.8164671374,Stroop,pre,1011,
green,green,1,down,,,,,2,40,130,23,down,1,0.349713101971,,,2019_Mar_01_1649,59.8164671374,Stroop,pre,1011,
green,green,1,down,,,,,2,41,131,17,down,1,0.350856360537,,,2019_Mar_01_1649,59.8164671374,Stroop,pre,1011,
green,blue,0,right,,,,,2,42,132,41,right,1,0.517572254797,,,2019_Mar_01_1649,59.8164671374,Stroop,pre,1011,
blue,blue,1,right,,,,,2,43,133,35,right,1,0.367406810172,,,2019_Mar_01_1649,59.8164671374,Stroop,pre,1011,
blue,blue,1,right,,,,,2,44,134,24,right,1,0.350404188945,,,2019_Mar_01_1649,59.8164671374,Stroop,pre,1011,
red,red,1,left,,,,,3,0,135,3,left,1,0.517126355446,,,2019_Mar_01_1649,59.8164671374,Stroop,pre,1011,
blue,red,0,left,,,,,3,1,136,43,left,1,0.367327836949,,,2019_Mar_01_1649,59.8164671374,Stroop,pre,1011,
blue,blue,1,right,,,,,3,2,137,30,down,0,0.467320481321,,,2019_Mar_01_1649,59.8164671374,Stroop,pre,1011,
blue,blue,1,right,,,,,3,3,138,29,right,1,0.616923419922,,,2019_Mar_01_1649,59.8164671374,Stroop,pre,1011,
blue,blue,1,right,,,,,3,4,139,26,right,1,0.367591271092,,,2019_Mar_01_1649,59.8164671374,Stroop,pre,1011,
red,red,1,left,,,,,3,5,140,2,left,1,1.08357505222,,,2019_Mar_01_1649,59.8164671374,Stroop,pre,1011,
green,green,1,down,,,,,3,6,141,21,down,1,0.583441339431,,,2019_Mar_01_1649,59.8164671374,Stroop,pre,1011,
red,blue,0,right,,,,,3,7,142,37,right,1,0.58388239205,,,2019_Mar_01_1649,59.8164671374,Stroop,pre,1011,
green,green,1,down,,,,,3,8,143,15,left,0,0.500867565042,,,2019_Mar_01_1649,59.8164671374,Stroop,pre,1011,
blue,blue,1,right,,,,,3,9,144,31,right,1,2.31739024575,,,2019_Mar_01_1649,59.8164671374,Stroop,pre,1011,
green,green,1,down,,,,,3,10,145,14,down,1,0.651047834965,,,2019_Mar_01_1649,59.8164671374,Stroop,pre,1011,
blue,blue,1,right,,,,,3,11,146,34,right,1,0.61747452187,,,2019_Mar_01_1649,59.8164671374,Stroop,pre,1011,
green,green,1,down,,,,,3,12,147,18,down,1,0.684428419184,,,2019_Mar_01_1649,59.8164671374,Stroop,pre,1011,
red,red,1,left,,,,,3,13,148,7,left,1,0.583558516307,,,2019_Mar_01_1649,59.8164671374,Stroop,pre,1011,
blue,blue,1,right,,,,,3,14,149,27,right,1,0.584651311839,,,2019_Mar_01_1649,59.8164671374,Stroop,pre,1011,
red,red,1,left,,,,,3,15,150,0,left,1,1.63421684507,,,2019_Mar_01_1649,59.8164671374,Stroop,pre,1011,
green,green,1,down,,,,,3,16,151,12,down,1,0.500311046158,,,2019_Mar_01_1649,59.8164671374,Stroop,pre,1011,
red,green,0,down,,,,,3,17,152,38,down,1,2.15136372786,,,2019_Mar_01_1649,59.8164671374,Stroop,pre,1011,
green,green,1,down,,,,,3,18,153,23,down,1,0.666971630651,,,2019_Mar_01_1649,59.8164671374,Stroop,pre,1011,
green,green,1,down,,,,,3,19,154,19,down,1,0.417373196659,,,2019_Mar_01_1649,59.8164671374,Stroop,pre,1011,
blue,green,0,down,,,,,3,20,155,42,down,1,0.366485075772,,,2019_Mar_01_1649,59.8164671374,Stroop,pre,1011,
red,red,1,left,,,,,3,21,156,11,left,1,0.61709220024,,,2019_Mar_01_1649,59.8164671374,Stroop,pre,1011,
blue,blue,1,right,,,,,3,22,157,33,right,1,0.550036521552,,,2019_Mar_01_1649,59.8164671374,Stroop,pre,1011,
green,blue,0,right,,,,,3,23,158,41,right,1,0.59996071296,,,2019_Mar_01_1649,59.8164671374,Stroop,pre,1011,
green,green,1,down,,,,,3,24,159,17,down,1,0.600546882439,,,2019_Mar_01_1649,59.8164671374,Stroop,pre,1011,
red,red,1,left,,,,,3,25,160,8,left,1,0.56725097348,,,2019_Mar_01_1649,59.8164671374,Stroop,pre,1011,
green,green,1,down,,,,,3,26,161,22,down,1,0.50044875037,,,2019_Mar_01_1649,59.8164671374,Stroop,pre,1011,
red,green,0,down,,,,,3,27,162,36,down,1,0.583920310601,,,2019_Mar_01_1649,59.8164671374,Stroop,pre,1011,
red,red,1,left,,,,,3,28,163,1,left,1,1.30044892143,,,2019_Mar_01_1649,59.8164671374,Stroop,pre,1011,
green,blue,0,right,,,,,3,29,164,40,right,1,0.650847408338,,,2019_Mar_01_1649,59.8164671374,Stroop,pre,1011,
green,green,1,down,,,,,3,30,165,16,down,1,0.800841791831,,,2019_Mar_01_1649,59.8164671374,Stroop,pre,1011,
red,red,1,left,,,,,3,31,166,5,left,1,0.667094224463,,,2019_Mar_01_1649,59.8164671374,Stroop,pre,1011,
red,red,1,left,,,,,3,32,167,9,left,1,0.48399409497,,,2019_Mar_01_1649,59.8164671374,Stroop,pre,1011,
blue,blue,1,right,,,,,3,33,168,28,right,1,0.800840366322,,,2019_Mar_01_1649,59.8164671374,Stroop,pre,1011,
blue,blue,1,right,,,,,3,34,169,35,right,1,0.367174452134,,,2019_Mar_01_1649,59.8164671374,Stroop,pre,1011,
red,red,1,left,,,,,3,35,170,10,left,1,0.767397914993,,,2019_Mar_01_1649,59.8164671374,Stroop,pre,1011,
blue,blue,1,right,,,,,3,36,171,32,right,1,0.634330315625,,,2019_Mar_01_1649,59.8164671374,Stroop,pre,1011,
green,green,1,down,,,,,3,37,172,20,down,1,0.584094507854,,,2019_Mar_01_1649,59.8164671374,Stroop,pre,1011,
red,red,1,left,,,,,3,38,173,6,left,1,0.617535533674,,,2019_Mar_01_1649,59.8164671374,Stroop,pre,1011,
red,red,1,left,,,,,3,39,174,4,left,1,0.400325814437,,,2019_Mar_01_1649,59.8164671374,Stroop,pre,1011,
blue,red,0,left,,,,,3,40,175,44,left,1,0.400582121033,,,2019_Mar_01_1649,59.8164671374,Stroop,pre,1011,
green,green,1,down,,,,,3,41,176,13,down,1,0.533556777186,,,2019_Mar_01_1649,59.8164671374,Stroop,pre,1011,
blue,blue,1,right,,,,,3,42,177,24,right,1,0.734084329717,,,2019_Mar_01_1649,59.8164671374,Stroop,pre,1011,
blue,blue,1,right,,,,,3,43,178,25,right,1,0.333629079024,,,2019_Mar_01_1649,59.8164671374,Stroop,pre,1011,
green,red,0,left,,,,,3,44,179,39,left,1,0.683706826308,,,2019_Mar_01_1649,59.8164671374,Stroop,pre,1011,
,,,,,,,,,,,,,,,space,2.03465727047,2019_Mar_01_1649,59.8164671374,Stroop,pre,1011,
