block	trial	stimulus	signal	correct	respons	rt	re	ssd
0	0	2	0	2	2	541	0	0
0	1	1	0	2	1	369	15	0
0	2	1	0	2	1	430	16	0
0	3	1	0	2	1	499	0	0
0	4	1	1	0	1	400	9	250
0	5	2	0	0	1	372	0	0
0	6	1	0	2	1	433	0	0
0	7	1	1	0	1	477	0	200
0	8	1	0	2	1	562	11	0
0	9	2	0	2	2	455	0	0
0	10	1	0	2	1	452	0	0
0	11	2	0	2	2	408	9	0
0	12	1	0	2	1	541	0	0
0	13	1	0	2	1	498	0	0
0	14	2	0	0	1	326	0	0
0	15	2	0	2	2	419	9	0
0	16	1	0	2	1	584	16	0
0	17	2	0	2	2	444	9	0
0	18	1	1	0	1	377	9	150
0	19	2	1	2	0	0	0	100
0	20	1	1	2	0	0	0	150
0	21	2	0	2	2	423	0	0
0	22	2	0	2	2	412	0	0
0	23	1	0	2	1	464	0	0
0	24	2	0	2	2	453	0	0
0	25	2	1	0	2	338	0	200
0	26	1	0	2	1	502	0	0
0	27	2	0	2	2	483	0	0
0	28	1	0	2	1	632	0	0
0	29	2	1	2	0	0	0	150
0	30	1	0	2	1	569	0	0
0	31	1	1	2	0	0	0	200
0	32	2	0	2	2	515	0	0
0	33	2	1	0	2	455	0	250
0	34	2	1	2	0	0	0	200
0	35	1	1	0	1	617	9	250
0	36	1	0	2	1	1045	0	0
0	37	1	0	2	1	530	0	0
0	38	2	0	2	2	447	9	0
0	39	2	0	2	2	299	12	0
0	40	2	0	2	2	376	16	0
0	41	1	0	2	1	509	0	0
0	42	1	0	0	2	281	0	0
0	43	1	0	2	1	486	9	0
0	44	2	0	2	2	459	0	0
0	45	2	1	2	0	0	0	200
0	46	2	1	0	2	500	0	250
0	47	2	0	2	2	713	0	0
0	48	1	0	2	1	702	0	0
0	49	2	0	2	2	474	0	0
0	50	1	0	2	1	471	9	0
0	51	2	0	2	2	387	0	0
0	52	2	1	0	2	368	9	200
0	53	1	0	2	1	621	0	0
0	54	1	0	2	1	410	0	0
0	55	1	0	2	1	382	0	0
0	56	2	0	2	2	427	0	0
0	57	2	0	2	2	504	0	0
0	58	1	1	2	0	0	0	150
0	59	2	0	2	2	585	0	0
0	60	2	0	2	2	446	11	0
0	61	1	1	2	0	0	0	200
0	62	1	0	2	1	599	0	0
0	63	2	0	2	2	420	0	0
1	0	2	0	2	2	497	0	0
1	1	2	0	0	1	366	0	0
1	2	1	0	2	1	522	0	0
1	3	1	0	2	1	383	0	0
1	4	1	0	2	1	380	0	0
1	5	2	0	2	2	441	0	0
1	6	2	0	2	2	541	0	0
1	7	2	1	0	2	370	0	250
1	8	1	0	2	1	391	16	0
1	9	2	0	2	2	507	12	0
1	10	2	0	2	2	344	11	0
1	11	1	0	2	1	597	0	0
1	12	1	0	2	1	657	0	0
1	13	1	0	2	1	478	0	0
1	14	2	0	2	2	419	16	0
1	15	2	0	2	2	359	0	0
1	16	2	1	0	1	444	0	200
1	17	2	1	2	0	0	0	150
1	18	1	1	0	1	462	9	200
1	19	1	0	2	1	562	0	0
1	20	2	0	2	2	455	11	0
1	21	2	0	2	2	316	0	0
1	22	1	0	2	1	480	0	0
1	23	2	0	2	2	461	0	0
1	24	1	0	2	1	354	16	0
1	25	2	1	0	2	334	0	150
1	26	2	0	2	2	459	0	0
1	27	1	0	0	2	272	16	0
1	28	1	0	2	1	604	0	0
1	29	2	0	2	2	417	-9	0
1	30	1	0	2	1	526	0	0
1	31	1	0	2	1	554	0	0
1	32	2	0	2	2	407	16	0
1	33	2	0	2	2	396	0	0
1	34	2	0	2	2	385	0	0
1	35	1	1	0	2	253	9	100
1	36	1	0	2	1	738	0	0
1	37	2	1	0	2	303	0	50
1	38	2	0	2	2	435	9	0
1	39	2	0	2	2	352	16	0
1	40	1	1	2	0	0	0	50
1	41	1	0	2	1	577	0	0
1	42	1	0	2	1	422	0	0
1	43	1	1	2	0	0	0	100
1	44	1	0	2	1	631	11	0
1	45	2	0	2	2	412	16	0
1	46	1	1	0	1	721	9	150
1	47	2	1	2	0	0	0	100
1	48	1	0	2	1	522	0	0
1	49	1	1	0	1	455	9	150
1	50	2	0	2	2	523	0	0
1	51	2	1	0	2	320	0	100
1	52	2	1	2	0	0	0	50
1	53	1	1	2	0	0	0	100
1	54	2	0	2	2	734	0	0
1	55	2	0	2	2	371	9	0
1	56	1	0	0	0	0	0	0
1	57	2	0	2	2	284	0	0
1	58	1	0	0	2	241	0	0
1	59	2	0	2	2	358	0	0
1	60	1	0	0	2	298	9	0
1	61	1	1	2	0	0	0	150
1	62	1	0	2	1	580	0	0
1	63	1	0	2	1	440	0	0
2	0	1	1	0	1	704	0	200
2	1	2	1	2	0	0	0	150
2	2	2	0	2	2	458	0	0
2	3	1	0	2	1	454	0	0
2	4	2	1	2	0	0	0	200
2	5	2	1	0	2	416	16	250
2	6	1	0	2	1	589	0	0
2	7	1	1	2	0	0	0	200
2	8	1	0	2	1	886	0	0
2	9	1	0	2	1	643	0	0
2	10	1	1	0	1	439	0	250
2	11	1	0	2	1	556	0	0
2	12	2	1	2	0	0	0	200
2	13	2	1	0	2	565	0	250
2	14	2	0	2	2	442	0	0
2	15	2	0	2	2	431	0	0
2	16	2	0	2	2	523	0	0
2	17	2	1	0	2	360	0	200
2	18	1	0	2	1	613	0	0
2	19	2	0	2	2	601	0	0
2	20	2	0	2	2	542	0	0
2	21	1	0	2	1	723	0	0
2	22	2	0	2	2	439	9	0
2	23	1	1	0	2	332	0	150
2	24	1	0	2	1	609	0	0
2	25	2	0	2	2	534	0	0
2	26	2	0	2	2	578	16	0
2	27	1	0	2	1	399	0	0
2	28	1	1	0	1	524	0	100
2	29	1	0	2	1	488	0	0
2	30	1	0	0	2	237	11	0
2	31	1	0	0	2	250	9	0
2	32	1	1	0	1	494	0	50
2	33	1	1	2	0	0	0	50
2	34	2	0	2	2	408	16	0
2	35	1	0	2	1	644	16	0
2	36	1	0	2	1	913	0	0
2	37	2	0	2	2	542	16	0
2	38	2	0	2	2	506	0	0
2	39	2	1	2	0	0	0	100
2	40	2	0	2	2	756	0	0
2	41	2	0	2	2	512	0	0
2	42	1	1	2	0	0	0	150
2	43	1	0	2	1	482	0	0
2	44	2	0	2	2	391	0	0
2	45	1	0	2	1	555	0	0
2	46	2	0	2	2	480	0	0
2	47	1	0	2	1	620	0	0
2	48	1	0	2	1	705	0	0
2	49	2	1	0	2	430	16	200
2	50	1	0	2	1	523	0	0
2	51	2	0	2	2	431	9	0
2	52	2	0	2	2	516	0	0
2	53	2	0	2	2	369	0	0
2	54	2	0	2	2	277	0	0
2	55	1	0	2	1	602	0	0
2	56	2	0	2	2	479	16	0
2	57	1	0	0	2	347	16	0
2	58	1	0	2	1	504	16	0
2	59	1	0	0	2	293	0	0
2	60	2	0	2	2	449	0	0
2	61	2	0	2	2	374	9	0
2	62	1	0	2	1	555	0	0
2	63	2	0	2	2	423	9	0
