block	trial	stimulus	signal	correct	respons	rt	re	ssd
0	0	2	0	2	2	813	0	0
0	1	2	0	2	2	570	0	0
0	2	2	0	2	2	503	12	0
0	3	1	0	2	1	436	11	0
0	4	2	0	2	2	600	0	0
0	5	2	0	2	2	749	9	0
0	6	1	0	2	1	674	0	0
0	7	1	0	2	1	806	0	0
0	8	2	0	2	2	811	9	0
0	9	2	1	2	0	0	0	300
0	10	1	0	2	1	596	11	0
0	11	1	1	2	0	0	0	350
0	12	1	0	2	1	806	11	0
0	13	1	0	2	1	882	0	0
0	14	2	0	2	2	823	0	0
0	15	1	0	2	1	740	0	0
0	16	1	0	2	1	1152	0	0
0	17	2	0	2	2	677	0	0
0	18	1	0	2	1	650	0	0
0	19	2	0	2	2	590	0	0
0	20	1	0	2	1	803	0	0
0	21	1	0	2	1	768	11	0
0	22	1	0	2	1	693	0	0
0	23	2	0	2	2	665	0	0
0	24	2	1	0	2	622	9	400
0	25	2	0	2	2	747	9	0
0	26	2	1	2	0	0	0	350
0	27	2	0	2	2	596	0	0
0	28	1	1	2	0	0	0	400
0	29	1	1	0	1	621	0	450
0	30	2	0	2	2	810	11	0
0	31	2	1	2	0	0	0	400
0	32	2	0	2	2	715	0	0
0	33	2	0	2	2	592	0	0
0	34	1	1	0	1	621	0	450
0	35	2	1	2	0	0	0	400
0	36	1	0	2	1	774	0	0
0	37	2	0	2	2	851	0	0
0	38	1	0	2	1	807	0	0
0	39	2	0	2	2	724	0	0
0	40	2	1	2	0	0	0	450
0	41	2	0	2	2	637	0	0
0	42	1	1	2	0	0	0	500
0	43	2	0	2	2	735	0	0
0	44	1	0	2	1	1052	0	0
0	45	2	0	2	2	664	14	0
0	46	2	1	0	2	661	0	550
0	47	1	0	2	1	1058	0	0
0	48	1	0	2	1	902	0	0
0	49	1	1	0	1	635	0	500
0	50	2	0	2	2	1032	0	0
0	51	1	0	2	1	1124	11	0
0	52	2	0	2	2	937	0	0
0	53	1	1	2	0	0	0	450
0	54	1	0	2	1	938	0	0
0	55	2	0	2	2	991	0	0
0	56	1	0	2	1	1004	-18	0
0	57	1	0	2	1	968	0	0
0	58	2	1	2	0	0	0	500
0	59	1	0	2	1	1018	11	0
0	60	1	0	2	1	998	0	0
0	61	1	0	2	1	891	0	0
0	62	2	0	2	2	1128	0	0
0	63	1	1	2	0	0	0	550
1	0	1	0	2	1	888	0	0
1	1	2	0	2	2	669	0	0
1	2	1	0	2	1	753	0	0
1	3	1	0	2	1	686	0	0
1	4	1	1	0	1	691	11	600
1	5	1	1	2	0	0	0	550
1	6	1	0	2	1	996	0	0
1	7	2	0	2	2	1225	0	0
1	8	2	0	2	2	598	11	0
1	9	2	0	2	2	898	0	0
1	10	1	1	2	0	0	0	600
1	11	1	0	2	1	835	0	0
1	12	2	0	2	2	960	0	0
1	13	1	0	2	1	909	0	0
1	14	2	1	2	0	0	0	650
1	15	1	0	2	1	846	0	0
1	16	1	0	2	1	1035	0	0
1	17	1	0	2	1	1008	0	0
1	18	2	1	2	0	0	0	700
1	19	2	0	2	2	1137	0	0
1	20	2	0	2	2	1070	0	0
1	21	1	1	2	0	0	0	750
1	22	2	0	2	2	951	0	0
1	23	1	0	2	1	1052	0	0
1	24	1	1	2	0	0	0	800
1	25	2	1	2	0	0	0	850
1	26	1	0	2	1	938	0	0
1	27	2	0	2	2	1214	0	0
1	28	2	1	0	2	939	0	900
1	29	1	0	0	0	0	0	0
1	30	2	0	2	2	1220	0	0
1	31	2	0	2	2	1153	11	0
1	32	2	0	2	2	1230	0	0
1	33	2	0	2	2	1083	-13	0
1	34	2	0	2	2	1151	0	0
1	35	1	0	2	1	1020	0	0
1	36	1	0	2	1	1073	0	0
1	37	2	0	2	2	1117	11	0
1	38	2	1	0	2	1090	0	850
1	39	2	0	0	0	0	0	0
1	40	2	0	2	2	819	0	0
1	41	1	0	0	0	0	0	0
1	42	2	0	2	2	1085	0	0
1	43	2	0	2	2	913	0	0
1	44	2	0	2	2	854	0	0
1	45	1	0	2	1	715	0	0
1	46	1	0	2	1	711	11	0
1	47	1	0	2	1	764	0	0
1	48	1	0	2	1	857	-9	0
1	49	2	0	2	2	950	0	0
1	50	2	0	2	2	834	0	0
1	51	2	1	2	0	0	0	800
1	52	1	1	0	1	708	0	850
1	53	1	0	2	1	744	0	0
1	54	1	1	2	0	0	0	800
1	55	1	1	0	1	578	0	850
1	56	1	0	2	1	966	11	0
1	57	1	0	2	1	1051	0	0
1	58	2	0	2	2	992	0	0
1	59	1	0	2	1	812	10	0
1	60	2	0	2	2	953	0	0
1	61	2	1	2	0	0	0	800
1	62	1	0	2	1	1138	0	0
1	63	2	1	0	2	807	0	850
2	0	2	0	2	2	791	0	0
2	1	2	1	0	2	772	0	800
2	2	1	0	2	1	665	0	0
2	3	1	0	2	1	869	11	0
2	4	1	0	2	1	570	0	0
2	5	2	0	2	2	542	0	0
2	6	2	0	2	2	635	0	0
2	7	1	1	0	1	824	0	750
2	8	2	1	2	0	0	0	700
2	9	2	1	0	2	777	0	750
2	10	2	0	2	2	1174	0	0
2	11	1	0	0	0	0	0	0
2	12	2	0	2	2	903	11	0
2	13	2	0	0	0	0	0	0
2	14	2	0	2	2	529	0	0
2	15	1	1	0	1	773	9	700
2	16	1	0	2	1	1250	13	0
2	17	1	0	2	1	1191	0	0
2	18	1	1	2	0	0	0	650
2	19	2	1	0	2	536	0	700
2	20	1	0	2	1	933	0	0
2	21	1	0	2	1	929	0	0
2	22	1	0	2	1	766	0	0
2	23	1	0	2	1	1075	0	0
2	24	2	0	2	2	1008	0	0
2	25	2	0	2	2	1036	0	0
2	26	1	0	2	1	769	0	0
2	27	2	0	2	2	1077	0	0
2	28	1	0	0	0	0	0	0
2	29	1	0	2	1	975	0	0
2	30	2	0	2	2	612	0	0
2	31	2	0	2	2	872	0	0
2	32	1	1	0	1	685	9	650
2	33	1	1	2	0	0	0	600
2	34	2	0	2	2	542	0	0
2	35	2	1	2	0	0	0	650
2	36	2	0	2	2	840	0	0
2	37	1	0	2	1	916	0	0
2	38	2	0	2	2	881	0	0
2	39	1	1	0	1	726	0	700
2	40	2	1	2	0	0	0	650
2	41	2	0	2	2	791	0	0
2	42	1	0	2	1	1116	11	0
2	43	1	0	2	1	881	9	0
2	44	2	0	2	2	1085	0	0
2	45	1	0	2	1	826	11	0
2	46	1	1	0	1	767	0	700
2	47	2	0	2	2	843	9	0
2	48	2	1	2	0	0	0	650
2	49	1	1	0	1	845	9	700
2	50	1	0	2	1	953	10	0
2	51	1	0	2	1	902	0	0
2	52	1	0	2	1	1035	0	0
2	53	2	0	2	2	943	0	0
2	54	2	0	2	2	1076	0	0
2	55	1	0	2	1	1169	0	0
2	56	1	0	2	1	1037	0	0
2	57	2	0	2	2	1146	0	0
2	58	2	0	2	2	999	11	0
2	59	2	0	2	2	899	0	0
2	60	2	1	2	0	0	0	650
2	61	1	0	2	1	805	0	0
2	62	2	0	2	2	882	0	0
2	63	1	0	2	1	982	0	0
