block	trial	stimulus	signal	correct	respons	rt	re	ssd
0	0	2	0	2	2	796	0	0
0	1	2	1	2	0	0	0	300
0	2	1	1	0	1	661	0	350
0	3	2	1	2	0	0	0	300
0	4	2	0	2	2	631	11	0
0	5	1	0	2	1	603	0	0
0	6	2	1	0	2	640	0	350
0	7	2	0	2	2	813	0	0
0	8	2	0	2	2	729	0	0
0	9	2	1	2	0	0	0	300
0	10	2	0	2	2	787	0	0
0	11	2	1	2	0	0	0	350
0	12	1	1	2	0	0	0	400
0	13	2	0	2	2	689	0	0
0	14	2	0	2	2	645	12	0
0	15	2	0	2	2	562	0	0
0	16	1	1	2	0	0	0	450
0	17	2	0	2	2	563	0	0
0	18	1	0	2	1	696	0	0
0	19	2	1	0	2	605	17	500
0	20	1	0	2	1	617	0	0
0	21	1	0	2	1	654	0	0
0	22	1	0	2	1	619	0	0
0	23	2	0	2	2	608	0	0
0	24	1	0	0	0	0	0	0
0	25	1	1	0	1	833	11	450
0	26	2	1	2	0	0	0	400
0	27	1	0	2	1	698	0	0
0	28	1	0	2	1	655	0	0
0	29	1	0	2	1	596	0	0
0	30	1	0	2	1	632	0	0
0	31	1	0	2	1	589	0	0
0	32	1	1	0	1	642	0	450
0	33	1	0	2	1	846	11	0
0	34	1	0	2	1	859	11	0
0	35	1	1	2	0	0	0	400
0	36	2	0	2	2	572	0	0
0	37	1	1	2	0	0	0	450
0	38	1	0	2	1	638	0	0
0	39	2	0	2	2	546	11	0
0	40	2	0	2	2	655	11	0
0	41	2	0	2	2	828	0	0
0	42	2	0	2	2	585	12	0
0	43	1	0	2	1	909	0	0
0	44	2	0	2	2	642	0	0
0	45	1	1	0	1	735	0	500
0	46	2	0	2	2	667	0	0
0	47	1	0	2	1	632	0	0
0	48	1	0	0	0	0	0	0
0	49	2	0	2	2	849	0	0
0	50	1	0	2	1	646	0	0
0	51	1	0	2	1	779	0	0
0	52	1	0	2	1	743	0	0
0	53	2	0	2	2	692	0	0
0	54	2	0	2	2	609	0	0
0	55	2	0	2	2	589	0	0
0	56	1	0	2	1	618	0	0
0	57	2	0	2	2	591	11	0
0	58	1	0	2	1	571	0	0
0	59	2	1	0	2	544	0	450
0	60	1	0	2	1	733	0	0
0	61	2	0	2	2	769	0	0
0	62	1	0	2	1	662	0	0
0	63	2	0	2	2	555	0	0
1	0	2	0	2	2	744	0	0
1	1	2	0	2	2	621	0	0
1	2	2	0	2	2	546	0	0
1	3	1	0	2	1	766	11	0
1	4	2	1	0	2	619	0	400
1	5	1	1	0	1	584	0	350
1	6	2	1	2	0	0	0	300
1	7	2	0	2	2	633	0	0
1	8	1	1	0	1	606	11	350
1	9	1	1	2	0	0	0	300
1	10	2	0	2	2	559	9	0
1	11	2	0	2	2	540	0	0
1	12	2	1	0	2	585	0	350
1	13	2	0	2	2	789	0	0
1	14	1	1	2	0	0	0	300
1	15	2	0	2	2	710	0	0
1	16	2	0	2	2	1027	0	0
1	17	2	0	2	2	792	0	0
1	18	1	1	2	0	0	0	350
1	19	1	0	2	1	785	0	0
1	20	1	0	2	1	574	0	0
1	21	2	0	2	2	667	0	0
1	22	2	0	2	2	647	0	0
1	23	2	0	2	2	932	0	0
1	24	1	0	2	1	777	0	0
1	25	1	0	2	1	613	11	0
1	26	1	1	0	1	530	0	400
1	27	1	0	2	1	759	0	0
1	28	2	1	2	0	0	0	350
1	29	1	0	2	1	624	0	0
1	30	2	1	0	2	613	10	400
1	31	1	0	2	1	689	0	0
1	32	1	0	2	1	606	0	0
1	33	1	0	2	1	603	9	0
1	34	2	0	2	2	640	0	0
1	35	2	1	2	0	0	0	350
1	36	2	1	0	2	505	0	400
1	37	2	0	2	2	822	0	0
1	38	1	1	2	0	0	0	350
1	39	1	0	2	1	711	0	0
1	40	2	0	2	2	596	0	0
1	41	2	0	2	2	880	0	0
1	42	1	0	2	1	853	0	0
1	43	2	0	2	2	978	0	0
1	44	1	0	2	1	742	0	0
1	45	1	0	2	1	763	0	0
1	46	2	0	2	2	632	0	0
1	47	1	0	2	1	748	0	0
1	48	2	0	2	2	625	0	0
1	49	2	0	2	2	782	0	0
1	50	2	0	2	2	1010	10	0
1	51	1	0	0	0	0	0	0
1	52	1	0	2	1	700	0	0
1	53	2	0	2	2	728	0	0
1	54	1	0	0	2	949	0	0
1	55	2	1	0	2	578	0	400
1	56	1	1	2	0	0	0	350
1	57	1	0	2	1	723	0	0
1	58	1	0	2	1	632	0	0
1	59	2	0	2	2	693	0	0
1	60	1	0	2	1	1073	0	0
1	61	1	0	2	1	614	11	0
1	62	1	0	2	1	683	0	0
1	63	1	0	2	1	591	0	0
2	0	1	0	2	1	896	0	0
2	1	1	0	2	1	637	0	0
2	2	2	0	2	2	642	12	0
2	3	1	1	0	1	574	0	400
2	4	1	0	2	1	675	0	0
2	5	1	1	2	0	0	0	350
2	6	2	0	2	2	476	0	0
2	7	2	0	2	2	617	0	0
2	8	2	0	2	2	566	0	0
2	9	2	0	2	2	642	0	0
2	10	2	1	0	2	959	0	400
2	11	2	0	2	2	588	9	0
2	12	1	0	2	1	872	0	0
2	13	1	1	2	0	0	0	350
2	14	2	0	2	2	634	0	0
2	15	2	0	2	2	862	0	0
2	16	2	1	2	0	0	0	400
2	17	2	0	2	2	720	0	0
2	18	1	0	2	1	740	0	0
2	19	2	1	2	0	0	0	450
2	20	2	0	2	2	798	0	0
2	21	2	0	0	0	0	0	0
2	22	1	0	2	1	831	0	0
2	23	1	0	2	1	724	0	0
2	24	1	0	2	1	601	9	0
2	25	1	0	2	1	565	0	0
2	26	1	0	2	1	570	0	0
2	27	2	0	2	2	671	-11	0
2	28	2	0	2	2	595	0	0
2	29	1	1	0	1	808	0	500
2	30	1	0	2	1	597	0	0
2	31	2	1	2	0	0	0	450
2	32	1	0	2	1	694	0	0
2	33	2	1	0	2	771	0	500
2	34	2	1	2	0	0	0	450
2	35	2	0	2	2	804	0	0
2	36	2	0	2	2	657	0	0
2	37	2	0	2	2	717	0	0
2	38	1	0	2	1	626	0	0
2	39	1	0	2	1	727	0	0
2	40	1	0	2	1	635	0	0
2	41	1	0	2	1	984	0	0
2	42	2	0	2	2	901	0	0
2	43	1	0	2	1	1081	0	0
2	44	2	0	0	0	0	0	0
2	45	1	1	2	0	0	0	500
2	46	2	1	0	2	656	0	550
2	47	2	1	2	0	0	0	500
2	48	2	0	2	2	657	11	0
2	49	2	0	2	2	566	0	0
2	50	1	0	2	1	658	12	0
2	51	1	0	2	1	615	11	0
2	52	1	1	0	1	636	0	550
2	53	2	0	2	2	712	0	0
2	54	1	1	2	0	0	0	500
2	55	1	0	2	1	762	0	0
2	56	1	1	0	1	694	11	550
2	57	2	0	2	2	635	0	0
2	58	1	0	2	1	944	11	0
2	59	1	0	2	1	852	0	0
2	60	2	0	2	2	1169	0	0
2	61	1	0	0	0	0	0	0
2	62	2	0	0	0	0	0	0
2	63	1	0	2	1	807	13	0
