block	trial	stimulus	signal	correct	respons	rt	re	ssd
0	0	2	0	2	2	814	0	0
0	1	1	0	2	1	402	0	0
0	2	2	0	2	2	351	0	0
0	3	2	0	2	2	452	0	0
0	4	2	0	2	2	360	0	0
0	5	2	0	2	2	389	0	0
0	6	1	1	2	0	0	0	100
0	7	1	1	2	0	0	0	150
0	8	1	1	2	0	0	0	200
0	9	2	0	2	2	520	0	0
0	10	2	0	2	2	388	0	0
0	11	2	1	0	2	297	0	250
0	12	2	1	2	0	0	0	200
0	13	1	0	2	1	634	16	0
0	14	1	0	2	1	407	0	0
0	15	1	0	2	1	596	0	0
0	16	2	0	2	2	529	0	0
0	17	1	0	2	1	493	0	0
0	18	2	0	2	2	546	0	0
0	19	1	0	2	1	415	0	0
0	20	1	0	2	1	547	17	0
0	21	1	0	2	1	872	0	0
0	22	2	0	2	2	493	13	0
0	23	2	1	2	0	0	0	250
0	24	1	1	0	1	518	0	300
0	25	1	0	2	1	763	0	0
0	26	1	0	2	1	519	0	0
0	27	1	0	2	1	404	0	0
0	28	2	0	2	2	377	0	0
0	29	1	0	2	1	493	0	0
0	30	2	0	2	2	370	16	0
0	31	1	0	2	1	495	0	0
0	32	1	0	2	1	371	0	0
0	33	2	1	0	2	440	0	250
0	34	2	0	0	1	325	0	0
0	35	1	1	0	1	410	10	200
0	36	2	1	2	0	0	0	150
0	37	1	0	2	1	507	0	0
0	38	2	0	2	2	488	0	0
0	39	1	0	2	1	588	16	0
0	40	2	0	2	2	417	0	0
0	41	2	0	2	2	502	0	0
0	42	2	0	2	2	442	0	0
0	43	1	0	2	1	375	0	0
0	44	1	0	2	1	1012	0	0
0	45	2	0	2	2	576	0	0
0	46	2	1	2	0	0	0	200
0	47	1	0	2	1	530	0	0
0	48	2	1	0	2	478	0	250
0	49	1	1	2	0	0	0	200
0	50	1	0	2	1	656	0	0
0	51	2	0	2	2	428	16	0
0	52	2	0	2	2	585	0	0
0	53	2	0	2	2	438	0	0
0	54	1	1	0	1	434	0	250
0	55	1	0	2	1	663	0	0
0	56	1	0	2	1	436	0	0
0	57	2	1	2	0	0	0	200
0	58	1	0	2	1	565	0	0
0	59	1	0	2	1	410	0	0
0	60	2	0	2	2	759	0	0
0	61	2	0	2	2	491	0	0
0	62	2	0	2	2	384	17	0
0	63	1	1	0	1	445	0	250
1	0	2	1	0	2	529	0	200
1	1	1	0	2	1	445	16	0
1	2	1	0	2	1	386	0	0
1	3	1	1	0	1	383	0	150
1	4	2	1	2	0	0	0	100
1	5	2	0	2	2	624	0	0
1	6	1	0	2	1	565	0	0
1	7	1	0	2	1	353	0	0
1	8	2	0	2	2	510	0	0
1	9	2	0	2	2	619	16	0
1	10	1	0	2	1	696	0	0
1	11	1	0	0	2	340	9	0
1	12	2	1	0	2	425	0	150
1	13	1	0	2	1	470	0	0
1	14	1	0	2	1	626	0	0
1	15	1	1	2	0	0	0	100
1	16	2	0	2	2	428	0	0
1	17	2	0	2	2	488	0	0
1	18	1	0	2	1	333	0	0
1	19	2	1	0	2	458	0	150
1	20	1	0	2	1	687	0	0
1	21	2	1	2	0	0	0	100
1	22	2	0	2	2	664	0	0
1	23	1	0	2	1	501	0	0
1	24	2	1	0	2	329	0	150
1	25	1	0	2	1	574	0	0
1	26	2	0	2	2	555	0	0
1	27	2	0	2	2	399	0	0
1	28	1	0	2	1	508	0	0
1	29	2	1	2	0	0	0	100
1	30	1	0	2	1	541	0	0
1	31	2	0	2	2	338	0	0
1	32	2	0	2	2	439	0	0
1	33	1	0	2	1	387	0	0
1	34	2	0	2	2	488	0	0
1	35	1	0	0	2	309	0	0
1	36	1	0	2	1	513	0	0
1	37	2	0	2	2	534	0	0
1	38	2	0	2	2	419	16	0
1	39	2	0	2	2	591	0	0
1	40	2	0	2	2	332	0	0
1	41	1	1	0	1	105	0	150
1	42	1	0	2	1	414	0	0
1	43	2	0	2	2	514	16	0
1	44	1	1	2	0	0	0	100
1	45	1	0	2	1	668	0	0
1	46	1	0	2	1	544	0	0
1	47	1	0	2	1	429	0	0
1	48	1	0	2	1	346	16	0
1	49	2	0	2	2	710	0	0
1	50	2	0	2	2	355	0	0
1	51	2	0	2	2	768	0	0
1	52	2	0	2	2	436	0	0
1	53	2	0	2	2	889	0	0
1	54	2	1	0	2	334	0	150
1	55	1	1	2	0	0	0	100
1	56	1	1	2	0	0	0	150
1	57	1	0	0	2	516	16	0
1	58	1	1	0	2	320	0	200
1	59	2	0	2	2	621	0	0
1	60	1	0	2	1	706	0	0
1	61	2	0	2	2	366	0	0
1	62	1	1	0	1	411	0	150
1	63	2	0	2	2	312	0	0
2	0	2	0	2	2	626	0	0
2	1	1	0	2	1	583	0	0
2	2	2	0	2	2	363	0	0
2	3	2	1	0	2	152	0	100
2	4	1	0	2	1	605	0	0
2	5	1	1	2	0	0	0	50
2	6	1	0	2	1	590	0	0
2	7	1	0	2	1	483	0	0
2	8	1	0	2	1	439	0	0
2	9	1	0	2	1	380	0	0
2	10	1	0	2	1	385	0	0
2	11	1	0	2	1	398	0	0
2	12	2	0	0	1	330	0	0
2	13	2	0	2	2	415	0	0
2	14	2	1	0	2	347	0	100
2	15	1	0	2	1	552	0	0
2	16	2	0	2	2	637	0	0
2	17	1	0	2	1	505	0	0
2	18	1	0	2	1	422	0	0
2	19	2	0	2	2	475	1	0
2	20	1	1	2	0	0	0	50
2	21	1	0	2	1	588	0	0
2	22	2	0	2	2	497	0	0
2	23	2	0	2	2	438	0	0
2	24	2	0	2	2	370	0	0
2	25	2	1	2	0	0	0	100
2	26	1	1	2	0	0	0	150
2	27	1	0	2	1	544	0	0
2	28	2	0	2	2	549	0	0
2	29	2	0	2	2	450	0	0
2	30	1	0	2	1	526	0	0
2	31	2	1	2	0	0	0	200
2	32	1	0	2	1	600	0	0
2	33	1	0	2	1	493	0	0
2	34	2	0	2	2	441	0	0
2	35	2	0	0	1	470	0	0
2	36	1	1	2	0	0	0	250
2	37	1	0	2	1	631	0	0
2	38	2	1	0	2	812	0	300
2	39	2	0	2	2	785	0	0
2	40	2	1	0	1	461	0	250
2	41	1	1	2	0	0	0	200
2	42	1	1	2	0	0	0	250
2	43	2	0	2	2	971	0	0
2	44	2	1	0	2	288	0	300
2	45	2	0	2	2	309	0	0
2	46	2	0	2	2	321	0	0
2	47	2	0	2	2	318	0	0
2	48	2	0	2	2	243	0	0
2	49	1	1	0	2	303	0	250
2	50	1	1	2	0	0	0	200
2	51	2	0	2	2	449	0	0
2	52	2	1	0	2	301	0	250
2	53	1	0	2	1	562	17	0
2	54	1	0	2	1	367	0	0
2	55	2	0	2	2	548	0	0
2	56	1	0	2	1	568	0	0
2	57	1	0	2	1	437	9	0
2	58	2	0	2	2	498	0	0
2	59	1	0	2	1	446	0	0
2	60	2	0	2	2	427	0	0
2	61	2	0	2	2	304	16	0
2	62	1	0	2	1	476	0	0
2	63	1	0	2	1	385	0	0
