block	trial	stimulus	signal	correct	respons	rt	re	ssd
0	0	1	0	2	1	500	1	0
0	1	1	0	2	1	516	2	0
0	2	2	0	2	2	484	1	0
0	3	1	0	0	2	551	1	0
0	4	2	1	2	0	0	0	200
0	5	2	0	2	2	397	0	0
0	6	1	0	2	1	487	1	0
0	7	2	0	2	2	598	0	0
0	8	1	0	2	1	541	1	0
0	9	1	0	2	1	817	1	0
0	10	2	0	2	2	565	0	0
0	11	2	0	2	2	607	2	0
0	12	1	1	0	1	571	1	250
0	13	2	1	2	0	0	0	200
0	14	2	0	2	2	531	1	0
0	15	1	1	2	0	0	0	250
0	16	1	0	2	1	1037	1	0
0	17	1	0	2	1	737	2	0
0	18	2	0	2	2	569	1	0
0	19	1	0	2	1	573	1	0
0	20	1	1	0	1	484	2	300
0	21	2	1	0	2	531	1	250
0	22	2	0	2	2	686	1	0
0	23	2	0	2	2	530	1	0
0	24	1	0	2	1	417	1	0
0	25	2	1	0	2	385	2	200
0	26	2	0	2	2	536	1	0
0	27	2	1	2	0	0	0	150
0	28	1	0	2	1	457	1	0
0	29	1	0	2	1	488	1	0
0	30	1	0	2	1	461	0	0
0	31	2	0	2	2	542	0	0
0	32	1	0	2	1	456	0	0
0	33	1	0	2	1	428	1	0
0	34	1	0	2	1	468	1	0
0	35	2	0	2	2	676	1	0
0	36	1	0	2	1	562	1	0
0	37	1	0	2	1	776	1	0
0	38	1	1	2	0	0	0	200
0	39	2	0	2	2	564	0	0
0	40	2	0	2	2	701	0	0
0	41	1	1	2	0	0	0	250
0	42	2	0	2	2	601	1	0
0	43	1	0	2	1	512	1	0
0	44	1	0	2	1	535	1	0
0	45	2	0	2	2	377	1	0
0	46	1	0	2	1	523	1	0
0	47	2	1	0	1	532	1	300
0	48	1	0	2	1	952	1	0
0	49	2	0	2	2	586	1	0
0	50	2	0	2	2	620	1	0
0	51	2	0	2	2	530	1	0
0	52	2	1	0	2	398	2	250
0	53	2	1	2	0	0	0	200
0	54	1	1	0	1	513	1	250
0	55	2	0	2	2	631	1	0
0	56	1	1	2	0	0	0	200
0	57	1	0	2	1	434	0	0
0	58	2	0	2	2	472	0	0
0	59	1	0	2	1	373	1	0
0	60	1	1	2	0	0	0	250
0	61	2	0	2	2	476	0	0
0	62	2	0	2	2	673	0	0
0	63	2	0	2	2	467	0	0
1	0	2	1	0	2	655	1	300
1	1	2	0	2	2	528	1	0
1	2	1	0	2	1	446	2	0
1	3	2	0	2	2	419	1	0
1	4	2	0	2	2	367	0	0
1	5	2	0	2	2	369	0	0
1	6	1	1	2	0	0	0	250
1	7	2	0	2	2	667	1	0
1	8	2	0	2	2	440	2	0
1	9	2	0	2	2	499	1	0
1	10	2	0	2	2	479	1	0
1	11	1	0	2	1	436	1	0
1	12	2	1	0	2	438	1	300
1	13	1	0	2	1	630	0	0
1	14	1	1	2	0	0	0	250
1	15	2	1	2	0	0	0	300
1	16	2	0	2	2	552	2	0
1	17	1	0	2	1	538	1	0
1	18	2	0	2	2	429	1	0
1	19	1	0	2	1	511	1	0
1	20	1	0	2	1	445	1	0
1	21	1	0	2	1	453	0	0
1	22	1	0	2	1	354	2	0
1	23	1	1	0	1	406	-72	350
1	24	2	0	2	2	536	1	0
1	25	2	0	2	2	616	0	0
1	26	1	0	2	1	515	1	0
1	27	2	0	2	2	497	0	0
1	28	1	0	2	1	467	0	0
1	29	1	1	0	2	448	1	300
1	30	1	0	2	1	631	0	0
1	31	2	0	2	2	434	7	0
1	32	1	0	2	1	446	0	0
1	33	2	1	0	2	396	0	250
1	34	1	0	2	1	402	0	0
1	35	1	1	2	0	0	0	200
1	36	1	0	2	1	463	0	0
1	37	1	1	2	0	0	0	250
1	38	2	0	2	2	604	0	0
1	39	1	1	0	1	451	1	300
1	40	1	0	2	1	517	1	0
1	41	1	0	2	1	592	1	0
1	42	2	0	2	2	452	1	0
1	43	1	0	2	1	394	1	0
1	44	1	0	2	1	553	1	0
1	45	2	0	2	2	396	1	0
1	46	1	0	2	1	402	1	0
1	47	2	1	0	2	409	2	250
1	48	2	1	2	0	0	0	200
1	49	2	0	2	2	744	16	0
1	50	1	0	2	1	346	3	0
1	51	2	0	2	2	506	1	0
1	52	2	1	0	2	407	1	250
1	53	1	0	2	1	653	2	0
1	54	2	0	2	2	497	2	0
1	55	1	0	2	1	450	1	0
1	56	1	1	2	0	0	0	200
1	57	1	0	2	1	483	1	0
1	58	2	0	2	2	557	1	0
1	59	2	0	2	2	537	2	0
1	60	2	0	2	2	524	2	0
1	61	1	0	2	1	553	1	0
1	62	2	1	2	0	0	0	250
1	63	2	0	0	1	766	1	0
2	0	1	0	2	1	611	1	0
2	1	1	0	2	1	507	2	0
2	2	2	0	2	2	469	2	0
2	3	2	1	0	1	508	2	300
2	4	2	1	0	2	562	1	250
2	5	2	0	2	2	644	1	0
2	6	2	0	2	2	517	1	0
2	7	1	0	2	1	506	1	0
2	8	1	1	0	1	478	2	200
2	9	2	0	2	2	531	2	0
2	10	2	0	2	2	537	1	0
2	11	2	0	2	2	569	1	0
2	12	1	1	2	0	0	0	150
2	13	1	0	2	1	688	1	0
2	14	2	0	2	2	505	2	0
2	15	1	0	2	1	565	2	0
2	16	1	1	2	0	0	0	200
2	17	2	1	2	0	0	0	250
2	18	2	0	2	2	574	1	0
2	19	2	0	2	2	528	1	0
2	20	1	1	0	1	490	1	300
2	21	2	0	2	2	534	1	0
2	22	1	0	2	1	631	1	0
2	23	2	1	2	0	0	0	250
2	24	1	0	2	1	575	1	0
2	25	1	1	0	1	475	2	300
2	26	1	0	2	1	497	1	0
2	27	1	0	2	1	493	2	0
2	28	2	0	2	2	477	1	0
2	29	2	0	2	2	559	1	0
2	30	1	0	2	1	489	2	0
2	31	2	0	2	2	528	1	0
2	32	2	0	2	2	505	2	0
2	33	2	1	0	2	443	1	250
2	34	1	1	2	0	0	0	200
2	35	1	0	2	1	619	1	0
2	36	2	1	2	0	0	0	250
2	37	1	0	2	1	603	1	0
2	38	1	0	2	1	483	1	0
2	39	1	0	2	1	415	1	0
2	40	1	0	2	1	392	1	0
2	41	1	0	2	1	375	2	0
2	42	2	0	2	2	505	1	0
2	43	2	0	2	2	480	1	0
2	44	1	1	0	1	436	2	300
2	45	1	0	2	1	465	2	0
2	46	2	0	2	2	503	1	0
2	47	2	0	2	2	511	1	0
2	48	1	1	0	1	403	2	250
2	49	1	0	2	1	539	2	0
2	50	1	0	2	1	583	1	0
2	51	2	0	2	2	451	2	0
2	52	1	0	2	1	447	1	0
2	53	1	0	2	1	556	1	0
2	54	2	1	0	2	397	1	200
2	55	2	0	2	2	665	2	0
2	56	2	0	2	2	723	1	0
2	57	1	0	2	1	467	1	0
2	58	1	0	2	1	535	2	0
2	59	2	0	2	2	466	1	0
2	60	2	1	2	0	0	0	150
2	61	2	0	2	2	498	1	0
2	62	1	0	2	1	426	2	0
2	63	2	0	2	2	371	1	0
