block	trial	stimulus	signal	correct	respons	rt	re	ssd
0	0	1	1	2	0	0	0	50
0	1	2	0	2	2	533	12	0
0	2	2	0	2	2	490	0	0
0	3	2	0	2	2	430	0	0
0	4	1	0	2	1	539	0	0
0	5	1	0	2	1	384	0	0
0	6	2	0	2	2	493	0	0
0	7	1	0	2	1	449	0	0
0	8	2	0	2	2	446	16	0
0	9	2	0	2	2	419	0	0
0	10	2	0	2	2	399	0	0
0	11	2	0	2	2	396	0	0
0	12	1	1	0	1	545	0	100
0	13	2	0	2	2	557	0	0
0	14	2	0	2	2	578	0	0
0	15	2	0	2	2	439	0	0
0	16	1	0	2	1	651	0	0
0	17	1	0	2	1	544	0	0
0	18	1	0	2	1	557	16	0
0	19	1	0	2	1	489	0	0
0	20	1	0	2	1	502	-10	0
0	21	1	0	2	1	547	0	0
0	22	1	0	2	1	519	0	0
0	23	2	0	2	2	500	0	0
0	24	2	1	2	0	0	0	50
0	25	2	1	0	2	317	0	100
0	26	1	0	2	1	602	0	0
0	27	1	1	2	0	0	0	50
0	28	1	0	2	1	612	0	0
0	29	1	0	2	1	504	0	0
0	30	1	0	2	1	437	0	0
0	31	1	0	2	1	578	0	0
0	32	1	0	2	1	734	0	0
0	33	1	1	2	0	0	0	100
0	34	2	0	2	2	448	0	0
0	35	2	1	0	2	348	10	150
0	36	2	0	2	2	449	0	0
0	37	2	1	2	0	0	0	100
0	38	2	1	0	2	290	0	150
0	39	2	0	2	2	399	0	0
0	40	1	1	2	0	0	0	100
0	41	1	0	2	1	360	0	0
0	42	2	1	2	0	0	0	150
0	43	1	0	2	1	578	0	0
0	44	1	0	2	1	678	0	0
0	45	1	0	2	1	499	0	0
0	46	1	1	2	0	0	0	200
0	47	1	0	2	1	445	0	0
0	48	1	1	0	1	329	0	250
0	49	1	0	2	1	494	0	0
0	50	2	1	0	2	635	0	200
0	51	2	0	2	2	447	0	0
0	52	2	0	2	2	556	0	0
0	53	2	0	2	2	489	0	0
0	54	2	0	2	2	437	0	0
0	55	2	0	2	2	434	0	0
0	56	2	0	2	2	479	0	0
0	57	2	0	2	2	475	0	0
0	58	1	0	2	1	680	0	0
0	59	1	1	2	0	0	0	150
0	60	1	0	2	1	593	0	0
0	61	2	0	2	2	478	0	0
0	62	2	0	2	2	475	0	0
0	63	2	1	2	0	0	0	200
1	0	1	0	2	1	657	0	0
1	1	2	0	2	2	510	0	0
1	2	1	0	2	1	490	0	0
1	3	1	0	2	1	535	0	0
1	4	2	0	2	2	540	0	0
1	5	2	0	2	2	384	0	0
1	6	2	0	2	2	445	0	0
1	7	1	1	2	0	0	0	250
1	8	2	0	2	2	582	0	0
1	9	1	1	2	0	0	0	300
1	10	1	0	2	1	496	0	0
1	11	2	0	2	2	517	0	0
1	12	2	1	0	2	497	0	350
1	13	1	0	2	1	534	0	0
1	14	2	1	0	2	355	10	300
1	15	1	1	0	1	511	0	250
1	16	1	0	2	1	628	0	0
1	17	2	0	2	2	481	0	0
1	18	2	1	2	0	0	0	200
1	19	1	0	2	1	506	0	0
1	20	1	0	2	1	575	0	0
1	21	2	0	2	2	643	0	0
1	22	2	0	2	2	528	0	0
1	23	1	0	2	1	941	0	0
1	24	1	0	2	1	513	0	0
1	25	2	0	2	2	494	0	0
1	26	2	1	0	2	475	9	250
1	27	2	0	2	2	591	0	0
1	28	2	1	0	2	372	0	200
1	29	1	0	2	1	521	0	0
1	30	1	0	2	1	525	0	0
1	31	2	1	2	0	0	0	150
1	32	2	0	2	2	903	0	0
1	33	2	0	2	2	483	0	0
1	34	2	0	2	2	536	0	0
1	35	2	0	2	2	549	0	0
1	36	2	0	2	2	530	0	0
1	37	2	0	2	2	318	0	0
1	38	1	0	2	1	371	0	0
1	39	1	1	2	0	0	0	200
1	40	1	0	2	1	412	0	0
1	41	1	1	2	0	0	0	250
1	42	1	0	2	1	550	0	0
1	43	1	0	2	1	858	0	0
1	44	2	0	0	1	615	0	0
1	45	1	0	2	1	604	0	0
1	46	1	1	2	0	0	0	300
1	47	2	0	0	1	581	0	0
1	48	2	0	2	2	610	0	0
1	49	1	0	2	1	686	0	0
1	50	2	1	0	2	547	0	350
1	51	1	0	2	1	584	0	0
1	52	1	0	2	1	517	0	0
1	53	1	1	0	1	449	0	300
1	54	2	1	0	2	462	0	250
1	55	2	0	2	2	755	0	0
1	56	2	0	2	2	559	-9	0
1	57	2	0	2	2	604	0	0
1	58	1	0	2	1	569	0	0
1	59	1	0	2	1	549	0	0
1	60	1	1	2	0	0	0	200
1	61	1	0	2	1	439	0	0
1	62	2	0	2	2	699	0	0
1	63	1	0	2	1	856	0	0
2	0	2	1	2	0	0	0	250
2	1	1	0	2	1	553	0	0
2	2	2	0	2	2	622	0	0
2	3	1	0	2	1	531	0	0
2	4	2	1	0	2	431	0	300
2	5	1	0	2	1	500	0	0
2	6	1	1	2	0	0	0	250
2	7	2	1	0	2	421	0	300
2	8	2	0	0	1	362	0	0
2	9	1	0	2	1	559	0	0
2	10	2	0	2	2	443	0	0
2	11	2	0	2	2	472	0	0
2	12	2	0	2	2	397	0	0
2	13	2	0	2	2	353	0	0
2	14	2	1	0	2	334	0	250
2	15	1	0	2	1	459	0	0
2	16	1	0	2	1	488	0	0
2	17	1	0	2	1	524	0	0
2	18	2	0	2	2	489	0	0
2	19	1	1	0	1	638	0	200
2	20	2	0	2	2	514	0	0
2	21	1	0	2	1	511	0	0
2	22	1	1	0	1	396	0	150
2	23	2	0	2	2	584	0	0
2	24	1	0	2	1	501	0	0
2	25	2	0	2	2	434	0	0
2	26	1	0	2	1	390	0	0
2	27	1	0	2	1	563	0	0
2	28	2	0	2	2	528	0	0
2	29	1	1	2	0	0	0	100
2	30	2	0	2	2	401	0	0
2	31	1	0	2	1	494	0	0
2	32	1	0	2	1	594	0	0
2	33	2	0	2	2	615	0	0
2	34	1	0	2	1	620	0	0
2	35	1	0	0	2	265	0	0
2	36	1	0	2	1	621	0	0
2	37	1	0	2	1	442	0	0
2	38	1	0	2	1	383	0	0
2	39	1	0	2	1	339	0	0
2	40	2	1	2	0	0	0	150
2	41	2	0	2	2	525	0	0
2	42	2	0	2	2	529	0	0
2	43	1	0	2	1	790	0	0
2	44	2	1	2	0	0	0	200
2	45	2	0	0	1	439	0	0
2	46	1	0	2	1	668	0	0
2	47	2	0	2	2	529	0	0
2	48	2	0	2	2	517	0	0
2	49	1	1	2	0	0	0	250
2	50	2	0	2	2	687	0	0
2	51	1	1	2	0	0	0	300
2	52	2	1	0	2	568	0	350
2	53	2	0	2	2	533	0	0
2	54	2	0	2	2	505	0	0
2	55	1	1	2	0	0	0	300
2	56	1	1	0	1	851	0	350
2	57	2	1	2	0	0	0	300
2	58	1	0	2	1	612	0	0
2	59	2	0	2	2	961	0	0
2	60	2	0	2	2	902	0	0
2	61	1	0	2	1	1026	0	0
2	62	1	0	0	0	0	0	0
2	63	2	0	2	2	444	0	0
